trial_id,participant_id,age,gender,height_cm,weight_kg,surface,shoes,false_start,total_time_sec,performance_band,timestamp_ms,acc_x,acc_y,acc_z,gyro_x,gyro_y,gyro_z,split_1_sec,split_2_sec,split_3_sec,split_4_sec,max_velocity_ms,avg_velocity_ms,stride_length_cm,stride_frequency_hz,avg_turn_time_ms,change_of_direction_deficit,acceleration_time_sec,deceleration_time_sec,reaction_time_ms,fatigue_index,coordination_score,balance_score,agility_rating,knee_lift_angle_deg,arm_swing_amplitude_deg,body_lean_angle_deg,foot_strike_pattern,balance_recovery_time_ms,hr_baseline_bpm,hr_peak_bpm,hr_recovery_30s_bpm
SH0001,P001,18,M,179.0,68.3,grass,cross_trainers,0,12.99,Average,1704079800000,-1.72,-1.03,8.62,0.586,0.101,0.499,3.0,3.15,3.26,3.58,2.49,3.08,166.0,3.4,575.0,0.41,1.31,0.98,180.0,0.23,7.5,7.8,9.1,81.0,83.0,18.0,forefoot,120.0,79.0,158.0,126.0
SH0002,P002,18,M,187.2,62.8,rubberized_floor,turf_shoes,0,10.8,Very Good,1704079830000,0.92,-0.18,8.74,-0.008,-0.466,0.982,2.5,2.9,2.82,2.58,3.34,3.7,196.0,4.3,555.0,0.4,1.94,0.85,208.0,0.14,6.8,6.2,7.3,89.0,101.0,13.0,forefoot,142.0,76.0,119.0,84.0
SH0003,P003,17,M,169.6,77.3,gym_floor,spikes,0,12.22,Good,1704079860000,1.36,-1.28,9.22,-0.615,0.363,0.296,3.16,3.25,3.04,2.78,3.05,3.27,147.0,4.1,479.0,0.48,1.65,1.26,154.0,0.09,8.0,8.1,7.7,61.0,118.0,13.0,forefoot,372.0,65.0,121.0,91.0
SH0004,P004,32,M,182.5,60.3,rubberized_floor,turf_shoes,0,11.25,Very Good,1704079890000,2.15,0.92,9.77,0.594,0.304,-0.752,2.55,2.69,2.78,3.23,4.11,3.56,189.0,4.3,620.0,0.1,1.61,1.05,291.0,0.16,6.9,6.5,7.4,78.0,122.0,14.0,heel,389.0,65.0,125.0,104.0
SH0005,P005,33,F,162.4,82.6,synthetic_track,cross_trainers,0,15.95,Below Average,1704079920000,-1.78,-0.03,10.47,-0.413,0.172,0.628,4.02,3.72,4.2,4.0,2.25,2.51,143.0,3.3,595.0,0.12,1.67,1.21,247.0,0.11,6.1,8.0,6.9,84.0,103.0,24.0,forefoot,202.0,62.0,139.0,107.0
SH0006,P006,25,F,164.1,66.1,gym_floor,cross_trainers,0,13.24,Average,1704079950000,1.59,0.17,9.56,-0.413,-0.407,0.953,3.63,3.52,3.46,2.64,3.5,3.02,160.0,3.1,556.0,0.18,1.92,1.16,151.0,0.11,6.0,6.4,8.7,79.0,122.0,19.0,forefoot,314.0,65.0,118.0,88.0
SH0007,P007,25,M,182.7,75.0,synthetic_track,turf_shoes,0,11.04,Very Good,1704079980000,-2.03,-0.4,9.03,-0.41,0.473,-0.257,2.76,2.63,2.86,2.8,4.19,3.62,157.0,3.0,613.0,0.42,1.34,1.36,152.0,0.37,9.8,9.7,7.5,75.0,138.0,24.0,midfoot,188.0,68.0,142.0,120.0
SH0008,P008,26,F,175.3,60.1,synthetic_track,turf_shoes,0,12.03,Good,1704080010000,2.18,0.59,9.64,-0.645,0.115,1.176,3.15,2.94,2.91,3.03,2.85,3.33,170.0,4.2,654.0,0.53,1.93,1.11,255.0,0.33,8.0,9.2,8.6,91.0,100.0,14.0,forefoot,273.0,61.0,119.0,93.0
SH0009,P009,27,M,180.5,50.6,rubberized_floor,basketball_shoes,0,11.76,Good,1704080040000,-1.86,0.07,10.04,-0.455,0.123,-0.995,3.28,2.95,2.86,2.68,2.79,3.4,188.0,3.4,604.0,0.32,1.26,0.82,211.0,0.11,9.9,9.3,8.8,65.0,95.0,17.0,midfoot,298.0,66.0,144.0,114.0
SH0010,P010,34,F,169.6,79.2,rubberized_floor,cross_trainers,0,15.55,Below Average,1704080070000,-0.4,-0.76,9.21,0.413,-0.486,-0.921,3.51,3.88,3.87,4.28,2.1,2.57,135.0,3.7,559.0,0.3,1.69,1.18,225.0,0.35,6.2,7.5,8.5,83.0,90.0,9.0,midfoot,108.0,72.0,149.0,123.0
SH0011,P011,16,M,187.7,55.1,grass,running_shoes,0,13.9,Below Average,1704080100000,2.21,-0.34,10.42,0.649,-0.304,-1.034,3.32,3.67,3.21,3.7,2.42,2.88,189.0,3.4,408.0,0.16,1.76,1.18,192.0,0.11,9.5,8.9,9.2,86.0,128.0,25.0,forefoot,212.0,76.0,129.0,96.0
SH0012,P012,18,F,150.0,55.8,grass,turf_shoes,0,15.39,Below Average,1704080130000,1.25,0.76,8.71,0.644,0.005,0.783,3.47,3.74,4.13,4.06,2.41,2.6,177.0,3.9,575.0,0.42,1.56,0.98,269.0,0.33,7.3,8.7,9.0,63.0,110.0,9.0,forefoot,232.0,78.0,132.0,114.0
SH0013,P013,26,M,178.3,63.2,grass,basketball_shoes,0,13.2,Average,1704080160000,-2.08,0.6,8.65,0.515,0.206,-1.005,3.65,3.56,3.43,2.56,2.53,3.03,163.0,3.1,618.0,0.49,1.65,1.05,152.0,0.21,9.6,6.4,8.0,62.0,87.0,10.0,midfoot,324.0,72.0,150.0,128.0
SH0014,P014,23,M,176.9,78.3,rubberized_floor,cross_trainers,0,11.51,Good,1704080190000,-1.38,1.39,8.52,0.752,-0.457,0.939,2.89,2.94,2.97,2.71,3.51,3.47,167.0,3.9,624.0,0.39,1.92,0.83,218.0,0.27,7.1,9.8,9.6,70.0,91.0,16.0,forefoot,275.0,62.0,141.0,106.0
SH0015,P015,22,M,177.7,92.5,concrete,turf_shoes,0,12.86,Average,1704080220000,0.92,-1.01,10.32,0.516,0.45,0.542,2.85,3.15,3.37,3.48,3.25,3.11,199.0,3.2,583.0,0.4,1.5,1.38,212.0,0.15,9.4,9.4,7.9,62.0,132.0,22.0,heel,399.0,71.0,142.0,108.0
SH0016,P016,32,M,170.4,64.6,grass,running_shoes,0,13.92,Below Average,1704080250000,-0.25,-1.11,10.41,0.17,-0.271,0.412,3.71,3.49,3.68,3.04,3.01,2.87,173.0,3.8,508.0,0.54,1.52,0.88,256.0,0.12,6.1,9.0,8.5,65.0,81.0,14.0,forefoot,218.0,69.0,145.0,123.0
SH0017,P017,16,F,172.5,58.7,concrete,basketball_shoes,0,14.83,Below Average,1704080280000,1.81,1.35,8.79,0.683,-0.008,-0.58,3.48,3.46,3.49,4.41,2.65,2.7,132.0,3.2,604.0,0.17,1.71,0.91,250.0,0.11,7.4,9.6,7.9,67.0,82.0,11.0,forefoot,153.0,62.0,107.0,82.0
SH0018,P018,33,F,152.3,52.5,gym_floor,turf_shoes,0,13.14,Average,1704080310000,0.02,0.57,8.58,0.479,0.128,-1.004,3.48,3.12,3.13,3.41,3.5,3.04,145.0,3.7,558.0,0.41,1.5,1.08,257.0,0.36,9.0,6.1,7.0,78.0,112.0,10.0,forefoot,260.0,65.0,116.0,93.0
SH0019,P019,29,M,169.8,57.0,grass,cross_trainers,0,13.6,Below Average,1704080340000,1.45,-0.0,8.67,0.059,0.087,0.589,3.46,3.32,3.66,3.16,2.86,2.94,176.0,3.4,478.0,0.15,1.32,0.95,176.0,0.36,6.6,6.7,7.1,63.0,111.0,15.0,heel,134.0,68.0,147.0,114.0
SH0020,P020,32,F,168.2,52.2,rubberized_floor,turf_shoes,0,13.34,Average,1704080370000,-1.65,0.51,10.36,0.091,0.072,-0.528,3.13,3.13,3.39,3.69,3.32,3.0,141.0,3.9,480.0,0.18,1.58,1.12,160.0,0.4,6.2,7.3,6.5,71.0,129.0,12.0,midfoot,328.0,72.0,131.0,108.0
SH0021,P021,27,F,166.0,56.0,gym_floor,cross_trainers,0,13.26,Average,1704080400000,2.19,-0.96,8.63,0.386,0.074,0.82,3.57,3.4,3.33,2.97,2.58,3.02,145.0,4.3,466.0,0.3,1.85,1.06,262.0,0.23,7.5,7.9,7.2,68.0,134.0,15.0,forefoot,372.0,72.0,117.0,83.0
SH0022,P022,17,M,170.2,52.3,synthetic_track,cross_trainers,0,11.55,Good,1704080430000,-1.8,0.88,9.74,0.054,0.394,0.693,2.94,3.01,3.06,2.54,2.98,3.46,161.0,4.2,467.0,0.16,1.88,0.88,184.0,0.3,7.6,9.2,6.6,85.0,118.0,20.0,forefoot,176.0,67.0,114.0,81.0
SH0023,P023,28,M,160.8,88.0,concrete,turf_shoes,0,14.46,Below Average,1704080460000,-1.73,0.26,9.51,0.178,-0.482,0.893,3.31,3.66,3.68,3.81,3.24,2.77,165.0,4.1,661.0,0.57,1.94,1.07,169.0,0.37,6.5,9.9,9.4,90.0,111.0,18.0,forefoot,116.0,67.0,139.0,124.0
SH0024,P024,29,F,161.6,47.9,rubberized_floor,running_shoes,0,13.0,Average,1704080490000,0.19,1.26,9.19,-0.245,0.238,-0.115,3.19,3.46,3.18,3.17,2.74,3.08,157.0,3.9,459.0,0.11,1.73,0.91,163.0,0.4,9.8,6.6,7.7,78.0,116.0,9.0,midfoot,163.0,78.0,126.0,107.0
SH0025,P025,18,F,161.8,52.6,grass,running_shoes,0,14.8,Below Average,1704080520000,1.38,-0.14,9.55,-0.095,-0.099,0.143,3.5,3.79,3.65,3.87,2.33,2.7,126.0,3.2,595.0,0.46,1.73,0.82,153.0,0.09,6.9,6.9,8.7,88.0,91.0,19.0,forefoot,130.0,65.0,134.0,102.0
SH0026,P026,20,F,162.7,54.4,synthetic_track,basketball_shoes,0,13.59,Below Average,1704080550000,0.84,-0.89,9.09,0.634,-0.487,-0.995,3.72,3.57,3.31,2.99,2.6,2.94,139.0,3.6,452.0,0.4,1.41,1.17,194.0,0.38,7.6,8.2,7.7,87.0,88.0,23.0,forefoot,368.0,76.0,133.0,118.0
SH0027,P027,20,M,177.5,49.5,grass,spikes,0,11.55,Good,1704080580000,-1.8,1.0,10.47,0.041,-0.328,-0.546,2.92,2.96,3.04,2.63,2.8,3.46,152.0,3.0,535.0,0.17,1.92,1.32,176.0,0.37,8.4,8.4,8.7,75.0,103.0,17.0,forefoot,150.0,75.0,118.0,91.0
SH0028,P028,19,F,167.2,51.9,gym_floor,spikes,0,11.87,Good,1704080610000,-1.06,-0.43,9.94,-0.325,0.066,-0.057,2.8,3.01,2.75,3.3,3.59,3.37,152.0,3.9,539.0,0.27,1.82,0.86,253.0,0.2,6.3,8.9,8.0,69.0,129.0,22.0,midfoot,182.0,72.0,126.0,109.0
SH0029,P029,31,M,174.4,77.4,rubberized_floor,basketball_shoes,0,13.17,Average,1704080640000,1.86,0.7,10.11,0.254,0.192,0.838,2.93,3.4,3.52,3.32,2.73,3.04,151.0,3.9,630.0,0.56,1.23,1.22,292.0,0.22,7.2,9.7,9.9,90.0,131.0,13.0,midfoot,111.0,72.0,121.0,104.0
SH0030,P030,18,F,152.7,60.2,grass,cross_trainers,0,15.7,Below Average,1704080670000,-0.8,0.67,8.63,-0.296,0.039,0.698,3.48,4.16,3.62,4.44,2.36,2.55,173.0,3.8,595.0,0.57,1.84,1.4,222.0,0.27,7.4,9.1,7.6,91.0,139.0,21.0,forefoot,226.0,75.0,124.0,107.0
SH0031,P031,33,M,164.2,59.0,synthetic_track,turf_shoes,0,11.07,Very Good,1704080700000,-2.29,-1.45,10.48,-0.116,-0.116,0.431,3.02,2.96,2.75,2.33,3.21,3.61,177.0,3.3,580.0,0.6,1.39,1.37,185.0,0.11,8.6,8.4,8.1,68.0,91.0,21.0,forefoot,117.0,79.0,155.0,121.0
SH0032,P032,32,M,168.9,87.0,gym_floor,turf_shoes,0,13.3,Average,1704080730000,0.98,-1.04,10.13,-0.441,-0.276,0.089,3.03,3.53,3.57,3.17,3.12,3.01,192.0,4.2,527.0,0.43,1.64,0.85,259.0,0.22,7.6,7.5,7.0,63.0,93.0,20.0,forefoot,355.0,70.0,129.0,102.0
SH0033,P033,20,F,158.6,68.4,rubberized_floor,spikes,0,13.54,Below Average,1704080760000,-1.16,1.14,10.09,0.254,0.351,0.882,3.59,3.2,3.59,3.16,3.2,2.95,173.0,3.0,654.0,0.51,1.3,1.0,275.0,0.23,9.0,6.6,9.3,60.0,97.0,18.0,heel,290.0,65.0,131.0,105.0
SH0034,P034,21,M,189.8,66.3,grass,turf_shoes,0,12.18,Good,1704080790000,1.31,0.12,10.43,-0.253,0.133,1.037,3.2,2.83,3.08,3.06,2.76,3.28,161.0,3.9,549.0,0.12,1.9,1.38,264.0,0.06,9.9,9.0,6.5,61.0,99.0,16.0,midfoot,305.0,69.0,120.0,85.0
SH0035,P035,26,F,151.9,45.0,rubberized_floor,turf_shoes,0,12.66,Average,1704080820000,0.97,-0.84,8.66,0.289,0.155,-0.544,3.27,3.11,3.05,3.23,3.73,3.16,179.0,3.6,543.0,0.55,1.38,0.93,280.0,0.22,6.1,8.6,7.5,94.0,91.0,23.0,midfoot,331.0,77.0,147.0,120.0
SH0036,P036,22,M,171.0,72.4,grass,running_shoes,0,13.56,Below Average,1704080850000,1.48,-0.06,8.73,-0.6,0.186,-0.167,3.63,3.29,3.37,3.27,2.6,2.95,141.0,3.1,476.0,0.3,1.58,1.16,267.0,0.06,7.2,8.8,9.4,77.0,86.0,12.0,heel,143.0,70.0,135.0,106.0
SH0037,P037,22,M,173.2,70.3,synthetic_track,running_shoes,0,11.38,Very Good,1704080880000,-2.06,-0.45,8.57,-0.674,-0.103,-0.881,2.57,2.91,2.94,2.96,3.61,3.52,142.0,4.4,532.0,0.13,1.63,1.23,201.0,0.34,9.5,8.9,9.2,63.0,134.0,17.0,midfoot,236.0,73.0,134.0,104.0
SH0038,P038,16,M,158.7,62.2,synthetic_track,running_shoes,0,12.01,Good,1704080910000,1.86,-0.84,10.45,-0.261,-0.318,0.695,3.36,3.23,3.07,2.34,3.54,3.33,152.0,4.0,550.0,0.14,1.22,0.95,261.0,0.2,7.9,9.5,8.9,72.0,102.0,25.0,forefoot,360.0,72.0,129.0,100.0
SH0039,P039,17,M,183.6,69.5,grass,turf_shoes,0,12.45,Good,1704080940000,-1.12,0.28,10.32,-0.463,0.123,0.316,2.92,3.35,2.95,3.23,3.51,3.21,191.0,3.7,542.0,0.22,1.9,1.07,175.0,0.19,8.1,7.4,8.4,94.0,95.0,19.0,forefoot,332.0,63.0,141.0,117.0
SH0040,P040,19,F,168.2,58.8,gym_floor,turf_shoes,0,12.17,Good,1704080970000,-0.81,0.99,9.36,-0.402,0.117,0.496,3.02,3.21,3.19,2.74,2.85,3.29,157.0,4.3,501.0,0.2,1.29,0.96,156.0,0.09,6.2,8.1,9.7,76.0,136.0,13.0,forefoot,112.0,63.0,142.0,108.0
SH0041,P041,21,M,182.3,74.2,synthetic_track,turf_shoes,0,10.9,Very Good,1704081000000,-0.06,0.5,8.78,-0.752,-0.192,0.491,2.69,2.88,2.58,2.74,3.23,3.67,182.0,4.3,601.0,0.57,1.75,1.1,155.0,0.38,8.5,9.5,8.3,84.0,121.0,12.0,midfoot,218.0,73.0,117.0,89.0
SH0042,P042,28,F,150.0,57.4,synthetic_track,running_shoes,0,14.28,Below Average,1704081030000,1.85,0.85,9.63,0.382,0.379,-0.23,3.52,3.75,3.35,3.66,2.61,2.8,155.0,3.0,679.0,0.26,1.49,1.04,186.0,0.18,8.8,7.6,7.8,68.0,84.0,18.0,midfoot,286.0,69.0,124.0,92.0
SH0043,P043,25,M,155.0,97.5,gym_floor,cross_trainers,0,15.03,Below Average,1704081060000,0.4,0.1,9.72,0.424,0.313,0.523,4.12,3.6,4.01,3.3,3.15,2.66,144.0,4.4,409.0,0.28,1.28,1.09,270.0,0.24,7.0,7.1,7.2,71.0,117.0,20.0,forefoot,224.0,62.0,110.0,81.0
SH0044,P044,29,M,161.8,71.3,concrete,cross_trainers,0,12.8,Average,1704081090000,1.05,-1.18,9.63,-0.389,0.463,-0.039,3.28,3.36,3.4,2.76,3.51,3.13,154.0,3.3,572.0,0.41,1.53,1.3,267.0,0.15,9.6,7.4,6.9,89.0,105.0,19.0,forefoot,287.0,69.0,132.0,114.0
SH0045,P045,22,M,180.1,75.0,concrete,spikes,0,10.93,Very Good,1704081120000,-2.38,0.43,9.71,0.075,-0.268,-0.262,2.67,2.7,2.83,2.73,3.8,3.66,182.0,4.5,590.0,0.16,1.28,1.23,163.0,0.36,8.3,7.1,6.3,67.0,99.0,12.0,forefoot,121.0,70.0,113.0,82.0
SH0046,P046,32,M,174.0,72.8,synthetic_track,cross_trainers,0,11.65,Good,1704081150000,1.9,0.45,9.57,-0.281,-0.167,0.407,2.61,2.94,3.13,2.98,4.11,3.43,151.0,4.0,602.0,0.2,1.63,0.86,250.0,0.33,7.8,9.0,7.4,92.0,94.0,15.0,forefoot,398.0,79.0,140.0,108.0
SH0047,P047,30,F,178.2,61.9,gym_floor,turf_shoes,0,13.1,Average,1704081180000,-1.86,0.98,10.06,0.334,-0.464,-0.472,3.12,3.22,3.25,3.51,2.76,3.05,158.0,3.8,542.0,0.56,1.6,1.4,167.0,0.34,9.4,6.8,9.7,73.0,133.0,23.0,midfoot,337.0,66.0,109.0,86.0
SH0048,P048,20,F,159.8,63.4,synthetic_track,turf_shoes,0,12.62,Average,1704081210000,-0.77,1.43,9.78,0.516,-0.367,0.869,3.16,3.1,2.98,3.38,3.7,3.17,145.0,3.1,554.0,0.11,1.31,1.38,197.0,0.23,8.2,9.9,7.7,75.0,86.0,19.0,forefoot,286.0,73.0,119.0,103.0
SH0049,P049,29,F,160.5,72.9,concrete,spikes,0,14.73,Below Average,1704081240000,2.42,-0.78,8.78,-0.606,-0.197,-0.957,3.79,3.57,3.76,3.62,2.92,2.72,154.0,3.6,598.0,0.17,1.91,1.07,274.0,0.31,6.8,7.5,7.7,87.0,81.0,15.0,forefoot,106.0,65.0,136.0,118.0
SH0050,P050,30,M,172.3,52.3,gym_floor,basketball_shoes,0,12.35,Good,1704081270000,-2.44,-0.78,10.45,0.482,0.46,-0.029,3.08,2.91,3.0,3.36,2.73,3.24,184.0,3.7,543.0,0.29,1.52,1.08,268.0,0.16,9.1,9.6,9.8,84.0,106.0,12.0,midfoot,112.0,78.0,136.0,109.0
SH0051,P051,16,M,180.9,73.6,grass,running_shoes,0,13.77,Below Average,1704081300000,-2.17,0.06,8.8,0.38,0.012,0.433,3.04,3.7,3.57,3.46,2.37,2.9,161.0,3.4,418.0,0.27,1.82,1.2,249.0,0.32,6.7,6.7,6.4,69.0,81.0,9.0,heel,189.0,75.0,140.0,118.0
SH0052,P052,30,M,187.5,66.1,synthetic_track,spikes,0,10.81,Very Good,1704081330000,0.58,0.82,9.79,0.048,-0.458,1.124,2.86,2.84,2.77,2.34,4.14,3.7,148.0,3.5,607.0,0.56,1.38,1.02,291.0,0.13,7.7,7.8,8.5,64.0,92.0,23.0,midfoot,186.0,76.0,151.0,119.0
SH0053,P053,20,M,173.7,73.4,rubberized_floor,running_shoes,0,11.74,Good,1704081360000,1.71,0.69,10.05,0.25,-0.323,0.108,3.09,3.08,2.8,2.76,4.07,3.41,170.0,4.3,460.0,0.47,1.63,1.15,253.0,0.36,8.0,7.2,8.3,82.0,126.0,11.0,forefoot,103.0,65.0,134.0,99.0
SH0054,P054,22,F,173.3,55.9,synthetic_track,spikes,0,11.51,Good,1704081390000,1.5,-0.89,9.61,0.373,0.116,-0.749,2.56,2.99,2.74,3.22,3.27,3.48,178.0,3.6,563.0,0.26,1.32,0.98,217.0,0.3,9.5,10.0,7.5,91.0,116.0,15.0,forefoot,309.0,60.0,125.0,103.0
SH0055,P055,34,M,170.6,100.0,rubberized_floor,running_shoes,0,15.02,Below Average,1704081420000,0.4,0.18,9.62,0.166,0.176,0.732,3.61,3.93,3.88,3.61,2.42,2.66,187.0,3.8,482.0,0.32,1.32,1.0,240.0,0.31,7.7,6.4,6.9,95.0,136.0,19.0,forefoot,291.0,76.0,120.0,97.0
SH0056,P056,33,F,163.3,54.3,grass,cross_trainers,0,15.84,Below Average,1704081450000,0.36,0.26,8.87,-0.22,-0.165,-1.137,4.38,3.81,3.91,3.74,2.04,2.53,173.0,4.3,540.0,0.19,1.84,1.07,259.0,0.22,7.9,6.5,6.3,75.0,124.0,21.0,forefoot,283.0,63.0,133.0,105.0
SH0057,P057,25,M,174.2,67.6,grass,turf_shoes,0,12.11,Good,1704081480000,2.03,-0.75,9.04,0.415,-0.05,0.664,2.76,3.04,2.98,3.32,2.73,3.3,161.0,4.3,486.0,0.11,1.73,1.38,213.0,0.14,8.2,9.7,6.2,86.0,139.0,12.0,midfoot,159.0,71.0,130.0,95.0
SH0058,P058,24,F,156.2,45.0,grass,running_shoes,1,15.36,Below Average,1704081510000,-1.74,-0.82,9.0,0.561,0.061,0.056,3.88,3.58,3.82,4.08,2.2,2.6,152.0,3.2,595.0,0.57,1.88,1.2,232.0,0.07,7.8,7.6,8.6,78.0,128.0,16.0,forefoot,336.0,64.0,114.0,96.0
SH0059,P059,34,M,184.3,60.8,synthetic_track,spikes,0,10.78,Very Good,1704081540000,1.89,1.14,10.24,-0.418,-0.049,1.164,2.72,2.69,2.52,2.84,4.11,3.71,179.0,4.2,483.0,0.29,1.82,1.38,269.0,0.25,6.8,8.1,7.1,82.0,128.0,15.0,heel,260.0,63.0,131.0,100.0
SH0060,P060,23,M,175.8,80.0,grass,running_shoes,0,13.62,Below Average,1704081570000,2.03,-0.67,10.47,-0.575,-0.298,-0.758,3.06,3.61,3.57,3.37,3.4,2.94,170.0,4.5,533.0,0.31,1.99,1.2,214.0,0.11,8.5,6.7,9.5,60.0,114.0,17.0,midfoot,367.0,62.0,131.0,112.0
SH0061,P061,26,F,163.9,61.0,gym_floor,turf_shoes,0,13.38,Average,1704081600000,-0.93,-0.09,10.14,-0.065,-0.142,-0.014,3.02,3.2,3.15,4.0,3.38,2.99,144.0,3.7,556.0,0.47,1.72,1.17,297.0,0.27,7.4,9.4,7.9,64.0,121.0,14.0,midfoot,121.0,63.0,138.0,118.0
SH0062,P062,24,M,177.8,63.9,rubberized_floor,basketball_shoes,0,11.86,Good,1704081630000,0.71,0.58,9.53,-0.312,-0.287,-1.12,3.17,3.04,2.85,2.8,3.11,3.37,194.0,4.0,704.0,0.38,1.29,1.07,207.0,0.39,7.8,9.5,8.2,64.0,105.0,9.0,midfoot,375.0,66.0,140.0,119.0
SH0063,P063,18,M,176.6,73.8,grass,running_shoes,0,13.76,Below Average,1704081660000,-1.09,1.12,8.73,0.326,0.041,-0.968,3.27,3.33,3.57,3.58,2.61,2.91,143.0,4.4,473.0,0.53,1.73,1.16,186.0,0.33,9.6,6.7,6.3,61.0,115.0,25.0,midfoot,256.0,61.0,135.0,108.0
SH0064,P064,32,M,170.8,73.2,grass,basketball_shoes,0,15.13,Below Average,1704081690000,1.65,1.14,9.64,0.028,-0.07,-0.439,3.88,3.86,3.84,3.55,2.57,2.64,182.0,3.4,639.0,0.36,1.28,1.03,240.0,0.31,8.0,8.6,9.8,78.0,118.0,9.0,forefoot,209.0,69.0,111.0,93.0
SH0065,P065,25,M,173.2,45.2,grass,spikes,0,12.18,Good,1704081720000,-1.1,-0.88,9.53,-0.791,-0.492,-0.674,3.05,2.94,3.26,2.93,2.67,3.28,164.0,3.1,528.0,0.41,1.29,1.01,255.0,0.4,8.0,9.5,8.0,65.0,96.0,15.0,forefoot,223.0,78.0,147.0,120.0
SH0066,P066,16,M,165.1,81.1,concrete,basketball_shoes,0,14.24,Below Average,1704081750000,2.28,0.96,8.5,0.218,-0.449,-0.582,3.52,3.48,3.34,3.89,2.31,2.81,165.0,4.1,524.0,0.14,1.26,1.01,204.0,0.26,9.8,8.7,8.7,60.0,118.0,24.0,midfoot,362.0,74.0,119.0,86.0
SH0067,P067,25,M,175.5,61.1,grass,cross_trainers,0,12.19,Good,1704081780000,-0.07,0.23,8.59,-0.603,0.059,-0.376,3.17,2.94,2.95,3.12,3.58,3.28,187.0,3.7,628.0,0.5,1.86,1.31,237.0,0.18,9.7,7.7,7.3,81.0,122.0,20.0,forefoot,150.0,69.0,114.0,82.0
SH0068,P068,32,F,157.5,48.4,rubberized_floor,running_shoes,0,13.67,Below Average,1704081810000,-2.37,0.44,9.77,-0.255,-0.428,-0.217,3.82,3.39,3.52,2.94,2.71,2.93,133.0,3.7,533.0,0.11,1.6,1.38,208.0,0.11,7.5,6.2,6.1,61.0,125.0,16.0,forefoot,370.0,62.0,141.0,119.0
SH0069,P069,19,M,176.9,80.8,grass,spikes,0,12.51,Average,1704081840000,-0.8,0.12,8.81,0.086,0.042,0.629,2.79,3.05,3.01,3.65,3.62,3.2,198.0,3.8,450.0,0.27,1.66,0.88,210.0,0.4,7.8,8.5,8.0,91.0,117.0,18.0,midfoot,160.0,68.0,109.0,85.0
SH0070,P070,28,M,163.1,51.7,synthetic_track,basketball_shoes,0,11.95,Good,1704081870000,2.32,1.23,9.94,0.053,0.37,-0.886,3.3,2.82,2.97,2.85,3.74,3.35,199.0,3.7,559.0,0.53,1.67,1.03,208.0,0.23,7.1,6.8,9.0,77.0,115.0,23.0,heel,222.0,77.0,147.0,121.0
SH0071,P071,16,F,170.2,56.0,gym_floor,cross_trainers,0,13.21,Average,1704081900000,0.05,0.38,10.35,-0.769,-0.023,0.451,3.54,3.19,3.15,3.33,3.3,3.03,178.0,3.0,486.0,0.6,1.74,1.3,275.0,0.31,7.2,6.1,9.0,65.0,125.0,21.0,midfoot,330.0,77.0,141.0,125.0
SH0072,P072,26,F,169.0,49.8,rubberized_floor,cross_trainers,0,12.91,Average,1704081930000,-0.46,-0.28,8.63,-0.242,-0.389,0.74,2.9,3.23,3.38,3.4,3.65,3.1,164.0,3.1,531.0,0.14,1.52,0.98,289.0,0.19,6.9,7.1,9.2,92.0,99.0,16.0,forefoot,292.0,80.0,144.0,122.0
SH0073,P073,22,M,168.2,74.0,gym_floor,turf_shoes,1,11.89,Good,1704081960000,0.43,0.37,8.64,0.292,-0.258,0.513,3.17,2.86,2.97,2.89,3.8,3.37,157.0,3.2,552.0,0.41,1.24,1.25,157.0,0.15,7.3,6.0,8.0,85.0,84.0,22.0,forefoot,174.0,75.0,127.0,110.0
SH0074,P074,25,F,169.0,45.0,gym_floor,basketball_shoes,0,13.36,Average,1704081990000,1.71,-0.56,10.08,0.627,-0.066,0.984,3.25,3.41,3.45,3.25,2.85,2.99,125.0,3.3,579.0,0.46,1.73,1.38,195.0,0.09,9.0,9.8,8.8,87.0,119.0,9.0,forefoot,387.0,70.0,127.0,103.0
SH0075,P075,18,F,158.1,45.8,synthetic_track,turf_shoes,0,12.25,Good,1704082020000,1.34,-0.25,10.14,0.561,-0.288,0.378,2.91,2.88,3.14,3.32,3.23,3.27,166.0,3.5,598.0,0.42,1.52,1.23,205.0,0.07,6.8,9.6,7.1,64.0,111.0,13.0,midfoot,104.0,68.0,121.0,106.0
SH0076,P076,29,F,161.0,55.7,grass,cross_trainers,0,14.76,Below Average,1704082050000,-0.04,-0.29,9.56,0.152,-0.49,-0.086,3.93,3.7,3.97,3.15,3.21,2.71,132.0,3.0,585.0,0.49,1.85,0.87,266.0,0.23,7.1,6.1,7.2,72.0,102.0,8.0,forefoot,294.0,79.0,153.0,138.0
SH0077,P077,21,F,163.2,60.4,grass,basketball_shoes,0,15.24,Below Average,1704082080000,-0.51,-0.59,8.63,-0.435,-0.253,-0.038,4.07,4.11,3.84,3.22,2.88,2.62,178.0,3.1,604.0,0.28,1.38,0.92,237.0,0.1,6.6,8.5,9.1,88.0,118.0,15.0,midfoot,178.0,67.0,144.0,123.0
SH0078,P078,23,F,172.4,67.9,rubberized_floor,turf_shoes,0,12.41,Good,1704082110000,1.04,-1.31,8.79,-0.787,0.131,-0.126,3.24,2.89,2.99,3.29,2.75,3.22,169.0,3.7,579.0,0.37,1.55,0.83,157.0,0.35,6.7,7.8,6.8,94.0,128.0,23.0,forefoot,388.0,64.0,142.0,107.0
SH0079,P079,32,F,150.8,62.6,synthetic_track,running_shoes,0,15.78,Below Average,1704082140000,-2.13,0.37,10.46,-0.496,0.293,0.979,3.62,3.93,4.08,4.14,2.98,2.53,139.0,4.0,702.0,0.43,1.33,1.14,151.0,0.17,9.1,8.0,6.0,92.0,94.0,19.0,forefoot,197.0,77.0,146.0,129.0
SH0080,P080,23,M,164.1,64.8,rubberized_floor,basketball_shoes,0,11.99,Good,1704082170000,-0.1,0.49,8.74,-0.338,-0.102,1.007,3.18,3.2,3.21,2.4,4.0,3.34,175.0,3.5,496.0,0.49,1.4,1.14,179.0,0.37,7.4,8.6,7.0,64.0,110.0,12.0,forefoot,111.0,64.0,138.0,118.0
SH0081,P081,34,F,162.7,63.8,grass,basketball_shoes,0,16.0,Below Average,1704082200000,0.08,0.78,9.06,-0.235,0.394,1.071,3.72,4.06,3.8,4.43,2.89,2.5,143.0,4.3,572.0,0.2,1.26,0.84,272.0,0.34,9.8,8.0,7.6,72.0,122.0,21.0,midfoot,145.0,78.0,139.0,118.0
SH0082,P082,31,M,162.5,63.9,concrete,spikes,0,12.0,Good,1704082230000,-1.86,0.8,8.5,-0.133,0.023,-1.069,2.64,3.11,3.22,3.03,3.96,3.33,153.0,4.0,433.0,0.47,1.88,1.05,273.0,0.11,7.2,7.3,8.9,73.0,134.0,22.0,heel,326.0,68.0,131.0,103.0
SH0083,P083,16,F,162.6,49.9,synthetic_track,spikes,0,12.08,Good,1704082260000,1.4,0.25,10.4,-0.732,-0.235,0.244,3.03,2.96,3.23,2.87,3.04,3.31,171.0,4.0,561.0,0.46,1.57,1.35,191.0,0.33,8.8,8.9,9.4,67.0,101.0,14.0,heel,357.0,74.0,143.0,117.0
SH0084,P084,32,M,179.2,69.9,grass,turf_shoes,0,13.18,Average,1704082290000,-0.6,-1.01,10.07,0.375,-0.116,-1.14,3.09,3.4,3.46,3.23,3.45,3.04,173.0,4.5,565.0,0.13,1.6,1.23,233.0,0.19,9.5,6.7,9.2,65.0,132.0,11.0,forefoot,187.0,77.0,144.0,113.0
SH0085,P085,25,F,166.8,45.0,synthetic_track,basketball_shoes,0,13.71,Below Average,1704082320000,2.03,-1.46,9.85,-0.717,0.049,-0.51,3.35,3.19,3.58,3.59,2.69,2.92,141.0,3.6,555.0,0.44,1.47,0.83,251.0,0.27,7.5,9.8,8.6,67.0,105.0,21.0,forefoot,183.0,66.0,123.0,88.0
SH0086,P086,28,F,163.8,58.3,concrete,basketball_shoes,0,14.11,Below Average,1704082350000,-1.6,1.41,8.73,-0.154,0.238,0.491,3.51,3.4,3.41,3.79,2.75,2.83,161.0,4.5,452.0,0.4,1.26,0.85,240.0,0.27,9.8,7.2,6.4,83.0,96.0,8.0,heel,175.0,74.0,142.0,115.0
SH0087,P087,21,F,154.1,48.8,concrete,cross_trainers,0,13.43,Average,1704082380000,2.23,-1.18,8.81,0.712,0.237,0.919,2.97,3.4,3.22,3.84,2.62,2.98,150.0,4.4,597.0,0.3,1.87,0.91,151.0,0.2,8.7,9.9,6.4,63.0,125.0,24.0,forefoot,178.0,69.0,138.0,122.0
SH0088,P088,24,F,163.9,75.5,rubberized_floor,running_shoes,0,14.98,Below Average,1704082410000,0.69,-0.77,9.93,-0.654,-0.301,0.906,3.52,3.48,3.72,4.26,2.93,2.67,165.0,3.9,393.0,0.44,1.26,1.37,290.0,0.24,9.4,9.2,9.3,67.0,117.0,21.0,midfoot,256.0,61.0,116.0,83.0
SH0089,P089,21,F,169.5,81.6,rubberized_floor,spikes,0,13.28,Average,1704082440000,1.98,0.5,10.07,-0.073,0.13,-0.604,2.97,3.49,3.21,3.6,3.26,3.01,149.0,3.0,607.0,0.25,1.6,0.83,265.0,0.19,8.0,9.7,6.4,83.0,96.0,11.0,forefoot,121.0,64.0,130.0,98.0
SH0090,P090,29,F,152.3,63.7,concrete,cross_trainers,0,15.54,Below Average,1704082470000,-1.95,-0.63,9.12,-0.4,0.015,0.085,4.27,4.17,3.78,3.32,2.43,2.57,144.0,3.8,585.0,0.57,1.9,0.86,179.0,0.35,7.6,8.2,8.0,84.0,130.0,23.0,midfoot,232.0,72.0,119.0,90.0
SH0091,P091,20,M,179.4,59.0,grass,spikes,0,11.83,Good,1704082500000,-1.67,-1.49,9.94,0.372,0.015,-0.813,2.85,2.77,2.83,3.38,2.82,3.38,171.0,3.9,465.0,0.22,1.25,1.03,242.0,0.24,6.9,6.9,9.8,75.0,106.0,17.0,midfoot,311.0,63.0,123.0,100.0
SH0092,P092,34,F,159.9,61.3,synthetic_track,cross_trainers,0,14.4,Below Average,1704082530000,0.16,-1.15,9.71,-0.612,-0.163,-0.857,3.61,3.55,3.32,3.92,2.99,2.78,169.0,3.1,512.0,0.34,1.65,1.18,259.0,0.24,8.8,7.0,6.0,89.0,129.0,22.0,forefoot,200.0,76.0,134.0,115.0
SH0093,P093,22,M,168.6,69.2,gym_floor,running_shoes,0,12.12,Good,1704082560000,2.01,-0.89,8.63,0.604,-0.111,0.1,3.25,3.0,3.27,2.6,3.92,3.3,174.0,3.5,446.0,0.21,1.48,1.02,258.0,0.28,6.3,7.5,7.9,85.0,81.0,12.0,midfoot,245.0,60.0,132.0,102.0
SH0094,P094,30,M,171.3,61.2,concrete,turf_shoes,0,11.7,Good,1704082590000,1.33,0.25,10.06,0.403,0.303,0.043,2.71,3.11,3.04,2.84,2.93,3.42,194.0,4.1,575.0,0.4,1.72,1.33,221.0,0.3,8.3,8.5,6.6,69.0,92.0,13.0,forefoot,164.0,68.0,145.0,120.0
SH0095,P095,33,M,167.7,88.2,concrete,turf_shoes,0,14.33,Below Average,1704082620000,1.48,-0.68,9.88,-0.378,0.439,0.327,3.66,3.45,3.67,3.54,2.6,2.79,189.0,4.2,472.0,0.48,1.35,0.85,155.0,0.14,8.8,7.5,7.7,61.0,133.0,12.0,forefoot,112.0,73.0,126.0,93.0
SH0096,P096,19,M,183.2,66.0,synthetic_track,turf_shoes,0,10.92,Very Good,1704082650000,2.0,1.49,10.15,0.552,-0.251,0.184,2.93,2.89,2.95,2.16,3.03,3.66,154.0,3.1,571.0,0.31,1.3,0.81,197.0,0.28,7.4,9.1,8.3,68.0,81.0,21.0,midfoot,329.0,61.0,134.0,107.0
SH0097,P097,31,F,176.1,68.2,synthetic_track,spikes,0,12.69,Average,1704082680000,0.4,1.47,10.01,-0.092,0.207,-0.266,3.19,3.03,3.42,3.05,2.81,3.15,179.0,4.0,650.0,0.5,1.77,1.16,252.0,0.18,6.2,7.8,8.7,93.0,90.0,17.0,midfoot,309.0,73.0,124.0,106.0
SH0098,P098,18,F,169.3,70.3,gym_floor,turf_shoes,0,13.79,Below Average,1704082710000,-1.6,0.62,9.41,0.268,0.337,-0.793,3.7,3.7,3.47,2.92,2.34,2.9,152.0,3.6,666.0,0.18,1.66,0.97,203.0,0.07,9.7,8.3,8.4,61.0,105.0,9.0,midfoot,364.0,78.0,144.0,125.0
SH0099,P099,32,F,166.4,50.0,concrete,spikes,0,13.61,Below Average,1704082740000,2.49,-1.41,10.29,0.196,0.473,-0.084,3.66,3.59,3.64,2.71,3.35,2.94,130.0,3.6,480.0,0.14,1.37,0.94,175.0,0.1,7.9,7.1,6.4,94.0,126.0,24.0,forefoot,184.0,76.0,129.0,108.0
SH0100,P100,31,F,157.6,53.1,rubberized_floor,turf_shoes,0,12.91,Average,1704082770000,-1.22,-0.43,9.85,-0.7,-0.289,0.742,3.21,3.12,3.26,3.31,2.66,3.1,169.0,3.2,481.0,0.39,1.6,0.89,162.0,0.21,8.5,7.1,8.0,71.0,129.0,9.0,forefoot,238.0,75.0,137.0,109.0
SH0101,P101,30,F,165.4,61.7,grass,cross_trainers,0,15.46,Below Average,1704082800000,1.7,1.47,10.28,-0.206,-0.305,-0.025,4.2,3.81,3.76,3.69,2.84,2.59,150.0,4.1,572.0,0.16,1.36,1.37,223.0,0.28,6.7,8.3,8.3,68.0,113.0,14.0,midfoot,142.0,71.0,119.0,98.0
SH0102,P102,23,F,150.0,51.9,gym_floor,basketball_shoes,0,13.52,Below Average,1704082830000,1.63,-0.64,10.35,0.752,0.071,-0.857,3.66,3.54,3.21,3.12,2.81,2.96,162.0,3.3,526.0,0.21,1.9,0.95,269.0,0.27,7.1,6.0,9.5,86.0,89.0,16.0,forefoot,128.0,70.0,147.0,131.0
SH0103,P103,24,M,167.5,62.0,grass,basketball_shoes,0,13.35,Average,1704082860000,-0.16,-0.1,10.02,-0.553,-0.013,-0.168,3.07,3.09,3.18,4.01,3.11,3.0,160.0,3.8,674.0,0.41,1.93,1.11,233.0,0.2,8.0,6.2,6.1,89.0,90.0,8.0,forefoot,171.0,61.0,130.0,113.0
SH0104,P104,32,M,173.5,51.8,gym_floor,cross_trainers,0,12.1,Good,1704082890000,-1.63,-0.36,10.1,-0.173,0.251,-0.899,2.94,2.82,2.79,3.55,3.67,3.31,190.0,3.8,601.0,0.49,1.39,1.01,290.0,0.14,6.1,9.8,8.7,81.0,121.0,13.0,midfoot,384.0,78.0,147.0,127.0
SH0105,P105,19,M,182.0,87.7,synthetic_track,turf_shoes,0,11.48,Very Good,1704082920000,-0.29,-0.72,9.19,0.535,0.435,-0.754,2.93,2.71,3.08,2.75,3.31,3.49,167.0,3.8,456.0,0.22,1.58,1.2,286.0,0.34,9.0,9.0,8.3,86.0,83.0,8.0,forefoot,299.0,68.0,124.0,92.0
SH0106,P106,32,F,160.4,69.4,concrete,running_shoes,0,15.44,Below Average,1704082950000,-1.14,-0.93,8.87,-0.253,-0.07,0.794,3.67,3.92,3.82,4.03,2.2,2.59,134.0,3.2,556.0,0.37,1.92,1.01,273.0,0.25,8.9,8.6,9.7,83.0,134.0,15.0,forefoot,103.0,77.0,149.0,131.0
SH0107,P107,28,F,154.1,82.1,rubberized_floor,running_shoes,0,16.0,Below Average,1704082980000,-2.34,0.48,9.56,-0.635,-0.327,0.163,4.45,3.96,3.9,3.69,2.3,2.5,128.0,3.1,675.0,0.45,1.57,0.94,204.0,0.34,8.5,7.0,8.3,89.0,109.0,14.0,forefoot,342.0,67.0,115.0,98.0
SH0108,P108,33,F,166.2,45.0,concrete,running_shoes,0,13.6,Below Average,1704083010000,1.7,-0.84,9.26,0.493,0.324,-0.277,3.55,3.42,3.15,3.49,2.89,2.94,151.0,3.6,586.0,0.18,1.73,1.38,213.0,0.09,8.2,8.9,6.3,81.0,136.0,19.0,forefoot,206.0,71.0,127.0,95.0
SH0109,P109,24,F,165.0,70.0,concrete,spikes,0,13.07,Average,1704083040000,-1.97,-0.44,9.33,0.281,0.158,-1.032,3.2,3.09,3.47,3.31,2.93,3.06,156.0,3.3,451.0,0.35,1.79,1.37,287.0,0.27,6.9,9.5,9.7,82.0,104.0,21.0,forefoot,303.0,69.0,138.0,106.0
SH0110,P110,32,M,169.3,72.8,concrete,cross_trainers,0,12.98,Average,1704083070000,0.2,1.03,9.36,-0.194,0.415,-0.597,3.11,3.01,3.13,3.74,3.51,3.08,140.0,4.5,535.0,0.58,1.52,1.24,292.0,0.19,7.4,8.7,9.2,87.0,96.0,25.0,forefoot,281.0,73.0,141.0,123.0
SH0111,P111,30,M,164.7,76.9,concrete,basketball_shoes,0,14.4,Below Average,1704083100000,-0.41,-1.02,8.84,-0.131,0.257,0.955,3.69,3.41,3.45,3.86,2.32,2.78,141.0,4.3,446.0,0.59,1.31,0.94,158.0,0.06,9.5,9.7,7.7,80.0,104.0,8.0,forefoot,103.0,76.0,128.0,112.0
SH0112,P112,27,M,160.0,49.2,concrete,cross_trainers,0,12.22,Good,1704083130000,2.37,0.13,9.05,0.335,-0.229,0.97,3.28,2.92,2.92,3.1,3.11,3.27,189.0,4.4,532.0,0.15,1.56,1.0,263.0,0.07,9.5,6.3,6.8,77.0,107.0,14.0,forefoot,259.0,63.0,126.0,95.0
SH0113,P113,32,M,170.1,75.5,concrete,spikes,0,12.41,Good,1704083160000,-0.69,-0.27,9.86,-0.709,-0.465,-0.259,3.4,3.0,2.97,3.04,3.48,3.22,165.0,3.4,548.0,0.44,1.86,1.2,261.0,0.18,9.3,7.6,6.6,83.0,96.0,9.0,heel,147.0,80.0,159.0,128.0
SH0114,P114,15,M,169.4,80.7,concrete,cross_trainers,0,13.96,Below Average,1704083190000,1.83,-0.63,9.44,0.191,-0.089,-0.174,3.65,3.67,3.52,3.12,2.67,2.86,187.0,3.0,619.0,0.51,1.23,1.33,265.0,0.14,10.0,7.2,6.8,90.0,86.0,10.0,heel,302.0,77.0,130.0,101.0
SH0115,P115,20,M,188.3,88.3,grass,turf_shoes,0,13.14,Average,1704083220000,-0.35,-0.67,10.04,-0.438,0.192,-0.64,3.37,3.47,3.04,3.26,3.2,3.05,184.0,3.5,445.0,0.34,1.94,1.0,189.0,0.06,7.9,6.1,6.3,82.0,106.0,17.0,forefoot,189.0,73.0,152.0,136.0
SH0116,P116,29,F,174.5,59.8,grass,turf_shoes,0,14.88,Below Average,1704083250000,0.32,0.0,8.64,-0.656,0.101,-0.382,3.74,3.84,3.96,3.34,3.14,2.69,169.0,4.0,495.0,0.44,1.96,0.98,249.0,0.27,6.0,7.1,6.9,81.0,81.0,20.0,forefoot,300.0,71.0,125.0,107.0
SH0117,P117,28,F,163.6,64.5,synthetic_track,turf_shoes,1,13.47,Average,1704083280000,1.4,-1.15,8.5,0.339,-0.143,-0.589,3.38,3.14,3.39,3.55,2.39,2.97,146.0,3.9,664.0,0.29,1.39,0.86,298.0,0.21,7.3,6.4,6.7,79.0,132.0,25.0,forefoot,344.0,67.0,119.0,96.0
SH0118,P118,32,M,168.0,84.5,grass,cross_trainers,0,15.85,Below Average,1704083310000,-0.92,-1.1,9.76,-0.595,0.078,0.464,4.08,3.76,3.66,4.35,2.73,2.52,157.0,3.7,657.0,0.41,1.88,0.92,222.0,0.25,6.5,9.9,6.4,79.0,85.0,9.0,forefoot,276.0,71.0,120.0,92.0
SH0119,P119,16,M,190.8,69.8,gym_floor,cross_trainers,0,11.27,Very Good,1704083340000,0.57,1.19,10.12,0.133,0.23,-0.324,2.72,3.0,2.6,2.94,3.75,3.55,159.0,3.1,539.0,0.48,1.76,1.0,218.0,0.19,8.7,7.6,9.0,93.0,95.0,10.0,forefoot,391.0,68.0,110.0,88.0
SH0120,P120,34,M,166.4,55.0,gym_floor,cross_trainers,0,12.06,Good,1704083370000,0.79,1.49,9.4,-0.232,-0.099,-0.924,3.12,2.8,3.17,2.97,3.83,3.32,196.0,4.0,538.0,0.58,1.32,1.09,201.0,0.09,8.4,8.3,7.6,74.0,90.0,20.0,forefoot,118.0,71.0,135.0,102.0
SH0121,P121,18,M,160.2,81.0,concrete,basketball_shoes,0,14.68,Below Average,1704083400000,-2.1,0.2,10.32,-0.166,-0.204,-0.856,3.89,3.72,3.86,3.2,2.34,2.72,145.0,3.7,556.0,0.42,1.86,1.27,281.0,0.39,7.1,9.8,6.5,66.0,123.0,9.0,forefoot,255.0,72.0,149.0,121.0
SH0122,P122,20,M,186.1,86.5,gym_floor,basketball_shoes,0,12.42,Good,1704083430000,2.25,-1.43,10.47,-0.662,0.314,-0.527,3.18,3.3,3.05,2.89,2.75,3.22,153.0,3.7,490.0,0.12,1.86,1.3,233.0,0.34,8.4,7.4,9.2,82.0,127.0,18.0,forefoot,387.0,71.0,135.0,116.0
SH0123,P123,15,F,169.7,77.4,rubberized_floor,turf_shoes,0,14.48,Below Average,1704083460000,0.12,-0.82,9.83,-0.672,-0.058,-0.808,3.63,3.61,3.55,3.69,2.41,2.76,171.0,3.2,430.0,0.35,1.25,0.84,234.0,0.39,8.3,8.3,9.5,62.0,86.0,9.0,forefoot,262.0,73.0,115.0,81.0
SH0124,P124,21,M,179.4,64.1,rubberized_floor,cross_trainers,0,11.22,Very Good,1704083490000,-2.11,-0.99,8.75,-0.603,0.019,-0.61,2.73,2.83,2.62,3.05,3.36,3.56,140.0,4.0,646.0,0.42,1.53,1.09,177.0,0.08,7.7,6.1,7.3,93.0,116.0,20.0,forefoot,218.0,65.0,109.0,90.0
SH0125,P125,24,M,180.0,82.5,rubberized_floor,running_shoes,0,11.65,Good,1704083520000,2.11,-1.28,9.06,-0.24,0.282,1.182,2.85,3.14,2.76,2.9,3.08,3.43,188.0,3.5,591.0,0.47,1.54,1.15,159.0,0.29,9.3,9.2,9.5,65.0,105.0,17.0,forefoot,256.0,80.0,125.0,97.0
SH0126,P126,28,F,180.5,48.0,synthetic_track,spikes,0,12.24,Good,1704083550000,-1.71,1.35,10.26,0.651,0.492,-0.7,3.13,3.1,2.9,3.12,3.08,3.27,151.0,3.8,541.0,0.39,1.37,1.25,235.0,0.14,6.1,7.4,9.1,84.0,114.0,22.0,midfoot,283.0,70.0,115.0,95.0
SH0127,P127,15,F,174.7,45.0,concrete,running_shoes,0,13.47,Average,1704083580000,-2.47,-0.01,9.07,0.375,-0.476,0.204,3.41,3.32,3.38,3.37,3.49,2.97,174.0,3.3,470.0,0.11,1.89,1.15,214.0,0.31,9.6,8.4,9.2,92.0,114.0,11.0,forefoot,160.0,65.0,117.0,91.0
SH0128,P128,26,F,162.8,45.0,gym_floor,turf_shoes,0,13.21,Average,1704083610000,0.58,-1.26,8.68,-0.525,0.018,-0.686,3.44,3.46,3.53,2.78,2.77,3.03,126.0,3.2,534.0,0.54,1.57,1.14,300.0,0.3,8.7,8.7,9.7,70.0,133.0,9.0,forefoot,369.0,65.0,114.0,96.0
SH0129,P129,31,F,162.0,69.5,rubberized_floor,spikes,0,13.54,Below Average,1704083640000,1.29,0.78,9.13,-0.143,-0.29,1.144,3.54,3.64,3.33,3.03,3.13,2.95,132.0,4.0,648.0,0.46,1.66,0.92,247.0,0.31,8.0,7.2,7.7,68.0,104.0,13.0,forefoot,335.0,78.0,133.0,103.0
SH0130,P130,29,F,167.3,45.0,rubberized_floor,basketball_shoes,0,13.55,Below Average,1704083670000,-2.19,-0.04,8.72,-0.402,-0.183,0.741,3.1,3.49,3.63,3.33,3.4,2.95,163.0,3.5,648.0,0.35,1.72,1.11,279.0,0.1,6.5,7.2,9.2,93.0,100.0,19.0,midfoot,344.0,79.0,131.0,99.0
SH0131,P131,22,M,178.2,61.3,grass,turf_shoes,0,12.27,Good,1704083700000,-1.24,1.12,8.84,-0.714,0.217,-0.059,2.84,3.18,3.07,3.18,3.71,3.26,176.0,3.7,542.0,0.51,1.86,1.23,255.0,0.18,6.4,9.4,8.7,91.0,124.0,10.0,forefoot,366.0,61.0,139.0,111.0
SH0132,P132,29,F,170.1,45.0,grass,running_shoes,0,15.6,Below Average,1704083730000,-1.26,1.33,9.1,0.441,-0.107,-0.866,3.75,3.91,3.86,4.07,2.06,2.56,173.0,3.8,581.0,0.35,1.31,1.39,239.0,0.2,7.0,6.3,8.7,75.0,127.0,11.0,midfoot,295.0,68.0,127.0,107.0
SH0133,P133,25,M,175.7,89.8,concrete,cross_trainers,0,13.51,Below Average,1704083760000,2.48,-0.19,10.34,-0.248,-0.445,-0.71,3.57,3.2,3.17,3.56,2.87,2.96,144.0,4.1,547.0,0.56,1.54,0.87,243.0,0.3,8.0,7.4,7.5,64.0,82.0,25.0,forefoot,116.0,64.0,105.0,83.0
SH0134,P134,23,F,150.3,52.3,grass,spikes,0,14.28,Below Average,1704083790000,-0.28,0.53,9.52,0.578,0.366,-1.176,3.79,3.43,3.59,3.47,3.11,2.8,180.0,4.3,665.0,0.15,1.77,1.01,273.0,0.17,6.0,7.6,6.9,89.0,80.0,13.0,forefoot,170.0,61.0,109.0,83.0
SH0135,P135,23,M,169.7,50.0,rubberized_floor,cross_trainers,0,11.25,Very Good,1704083820000,2.03,-0.02,9.16,-0.629,0.453,-1.055,2.56,2.87,2.64,3.18,3.27,3.56,144.0,4.4,496.0,0.2,1.86,1.13,279.0,0.11,6.3,9.8,7.0,90.0,81.0,17.0,midfoot,380.0,78.0,151.0,118.0
SH0136,P136,28,F,159.9,51.6,rubberized_floor,cross_trainers,0,12.85,Average,1704083850000,-1.06,-0.37,9.29,0.071,-0.34,0.459,3.33,3.04,3.24,3.25,2.7,3.11,130.0,3.6,594.0,0.31,1.23,0.96,156.0,0.11,9.8,9.8,7.4,74.0,137.0,10.0,midfoot,133.0,80.0,135.0,104.0
SH0137,P137,30,F,170.4,45.0,synthetic_track,running_shoes,0,13.35,Average,1704083880000,2.19,1.25,10.27,0.201,0.308,-1.034,3.41,3.5,3.27,3.15,2.8,3.0,132.0,3.3,482.0,0.22,1.44,1.19,274.0,0.12,8.4,8.8,7.5,76.0,128.0,11.0,forefoot,365.0,67.0,134.0,119.0
SH0138,P138,27,M,172.4,56.7,grass,spikes,0,12.58,Average,1704083910000,-2.22,0.33,8.98,-0.181,-0.419,-0.847,2.86,3.05,3.36,3.31,2.92,3.18,150.0,4.4,486.0,0.2,1.79,1.13,179.0,0.11,9.5,8.2,8.1,92.0,100.0,14.0,midfoot,202.0,79.0,149.0,122.0
SH0139,P139,32,F,160.3,45.0,concrete,spikes,0,13.56,Below Average,1704083940000,2.1,-0.23,9.18,0.738,-0.055,-0.026,3.26,3.36,3.58,3.37,2.77,2.95,145.0,4.2,682.0,0.57,1.7,1.24,158.0,0.19,9.2,9.4,7.6,84.0,107.0,21.0,forefoot,290.0,64.0,134.0,108.0
SH0140,P140,29,F,156.2,51.5,grass,basketball_shoes,0,15.54,Below Average,1704083970000,1.24,-0.05,8.93,0.748,0.215,1.097,3.65,3.85,3.65,4.38,2.5,2.57,136.0,3.0,626.0,0.12,1.98,0.95,173.0,0.3,8.7,9.4,8.2,81.0,124.0,21.0,heel,272.0,67.0,133.0,116.0
SH0141,P141,21,F,169.1,52.5,synthetic_track,spikes,0,11.36,Very Good,1704084000000,-0.13,1.06,9.18,0.591,-0.412,0.664,2.87,2.9,2.7,2.89,4.01,3.52,137.0,3.1,486.0,0.26,1.65,1.31,258.0,0.38,8.7,7.7,9.8,78.0,96.0,9.0,midfoot,136.0,66.0,127.0,101.0
SH0142,P142,20,M,187.0,56.2,gym_floor,turf_shoes,0,10.93,Very Good,1704084030000,-0.6,0.35,10.44,0.364,0.423,0.629,2.73,2.75,2.66,2.8,3.79,3.66,171.0,3.3,561.0,0.5,1.35,0.85,192.0,0.25,7.7,8.6,7.8,72.0,136.0,24.0,forefoot,198.0,75.0,116.0,92.0
SH0143,P143,33,F,166.2,55.7,synthetic_track,cross_trainers,0,13.5,Average,1704084060000,1.2,-0.04,8.67,0.756,0.018,0.274,3.65,3.23,3.21,3.41,2.65,2.96,153.0,4.2,437.0,0.13,1.66,0.87,168.0,0.07,6.1,6.2,9.3,75.0,131.0,12.0,forefoot,112.0,69.0,132.0,106.0
SH0144,P144,26,M,172.8,55.2,grass,running_shoes,0,12.72,Average,1704084090000,-1.97,-0.4,8.7,0.427,0.466,1.128,3.15,3.17,3.31,3.09,3.6,3.15,157.0,3.5,577.0,0.56,1.24,1.09,187.0,0.17,9.7,8.4,8.2,90.0,114.0,17.0,forefoot,105.0,79.0,134.0,107.0
SH0145,P145,19,F,163.6,52.6,synthetic_track,running_shoes,0,12.99,Average,1704084120000,-1.87,0.25,10.03,-0.15,0.38,0.357,3.57,3.38,3.34,2.7,3.57,3.08,142.0,3.3,458.0,0.48,1.58,0.94,220.0,0.1,8.5,6.2,7.3,94.0,93.0,10.0,forefoot,331.0,69.0,131.0,116.0
SH0146,P146,19,F,167.0,57.4,synthetic_track,running_shoes,0,12.8,Average,1704084150000,1.58,1.16,8.67,0.061,0.413,-0.269,3.34,3.13,3.42,2.91,3.54,3.12,140.0,3.5,645.0,0.45,1.81,1.36,160.0,0.19,6.8,9.2,9.0,70.0,98.0,25.0,midfoot,315.0,80.0,135.0,104.0
SH0147,P147,30,F,169.4,56.1,concrete,basketball_shoes,0,14.35,Below Average,1704084180000,1.28,-0.32,9.72,-0.089,0.242,-0.652,3.5,3.33,3.64,3.88,2.29,2.79,174.0,3.2,462.0,0.4,1.73,1.05,151.0,0.29,8.8,7.6,8.0,83.0,82.0,14.0,heel,226.0,70.0,146.0,117.0
SH0148,P148,16,F,154.3,71.4,concrete,running_shoes,0,16.0,Below Average,1704084210000,1.82,-0.13,9.45,-0.182,0.467,0.473,3.92,4.24,3.81,4.03,2.08,2.5,170.0,3.8,545.0,0.13,1.98,1.11,196.0,0.12,7.2,7.9,9.4,65.0,98.0,21.0,forefoot,168.0,63.0,117.0,83.0
SH0149,P149,27,F,152.7,57.4,synthetic_track,spikes,0,12.84,Average,1704084240000,1.05,1.45,8.6,-0.645,0.22,-0.524,3.19,3.27,3.17,3.22,2.72,3.11,126.0,4.2,421.0,0.11,1.81,1.34,208.0,0.36,7.7,8.1,7.9,91.0,100.0,18.0,heel,389.0,70.0,128.0,108.0
SH0150,P150,16,M,182.8,50.2,gym_floor,spikes,0,11.12,Very Good,1704084270000,-1.1,-0.29,10.5,-0.712,0.079,-1.002,2.5,2.69,2.99,2.93,3.1,3.6,197.0,3.5,491.0,0.39,1.93,0.8,174.0,0.39,9.2,9.8,6.4,79.0,81.0,12.0,forefoot,308.0,75.0,154.0,134.0
SH0151,P151,17,M,190.9,97.4,synthetic_track,spikes,0,11.29,Very Good,1704084300000,2.39,1.06,9.5,0.165,-0.273,0.105,3.01,2.67,2.77,2.84,3.82,3.54,161.0,3.6,611.0,0.49,1.59,1.28,186.0,0.13,8.3,7.4,9.2,78.0,96.0,8.0,midfoot,253.0,69.0,148.0,121.0
SH0152,P152,34,M,172.3,82.7,rubberized_floor,turf_shoes,0,12.98,Average,1704084330000,0.42,0.65,9.24,-0.652,-0.042,-0.253,3.13,3.45,3.49,2.92,3.53,3.08,167.0,3.5,602.0,0.36,1.75,0.96,208.0,0.17,8.9,6.2,6.2,71.0,109.0,13.0,forefoot,193.0,79.0,136.0,112.0
SH0153,P153,29,F,164.0,58.5,rubberized_floor,turf_shoes,0,13.05,Average,1704084360000,1.08,0.32,8.68,0.283,-0.436,0.231,3.23,3.12,3.07,3.63,3.36,3.06,177.0,3.1,541.0,0.2,1.48,1.17,186.0,0.12,8.2,6.5,7.2,74.0,122.0,12.0,forefoot,217.0,80.0,158.0,127.0
SH0154,P154,34,M,166.1,56.4,rubberized_floor,running_shoes,0,11.91,Good,1704084390000,0.03,0.83,10.22,0.552,-0.14,0.449,2.86,3.07,3.1,2.88,3.11,3.36,158.0,4.2,448.0,0.25,1.56,1.24,249.0,0.26,8.8,9.9,6.9,92.0,89.0,21.0,forefoot,182.0,69.0,123.0,96.0
SH0155,P155,21,M,176.4,81.5,grass,running_shoes,0,13.92,Below Average,1704084420000,-2.24,-0.8,9.48,-0.304,-0.318,0.01,3.79,3.59,3.26,3.28,2.67,2.87,187.0,4.2,523.0,0.48,1.29,1.19,219.0,0.24,9.3,8.3,8.6,61.0,118.0,9.0,forefoot,188.0,71.0,116.0,87.0
SH0156,P156,20,M,193.2,64.0,gym_floor,running_shoes,0,11.53,Good,1704084450000,-1.98,-1.06,10.25,0.045,-0.033,-0.944,2.61,2.67,2.77,3.47,3.68,3.47,148.0,3.4,600.0,0.29,1.95,1.17,260.0,0.15,9.3,8.8,6.5,82.0,100.0,25.0,forefoot,184.0,79.0,120.0,91.0
SH0157,P157,34,F,167.3,63.1,grass,running_shoes,0,16.0,Below Average,1704084480000,-1.86,0.45,10.46,0.659,-0.061,-1.104,3.93,3.98,4.27,3.82,2.36,2.5,160.0,3.5,555.0,0.36,1.25,1.38,252.0,0.28,7.4,7.9,7.4,85.0,96.0,13.0,forefoot,297.0,61.0,125.0,92.0
SH0158,P158,24,F,171.2,56.7,synthetic_track,cross_trainers,0,12.89,Average,1704084510000,-0.2,-1.27,9.84,0.514,-0.255,-0.189,2.91,3.43,3.39,3.15,3.52,3.1,167.0,3.1,533.0,0.52,1.55,1.01,237.0,0.12,8.2,6.4,9.0,67.0,91.0,9.0,forefoot,352.0,60.0,102.0,76.0
SH0159,P159,33,M,170.7,81.9,concrete,running_shoes,0,14.43,Below Average,1704084540000,-1.13,-1.42,9.97,0.201,0.081,0.58,3.76,3.81,3.88,2.98,2.97,2.77,178.0,3.3,402.0,0.15,1.85,1.15,275.0,0.07,8.5,9.1,8.8,86.0,131.0,13.0,midfoot,194.0,79.0,120.0,94.0
SH0160,P160,19,F,150.0,63.2,gym_floor,running_shoes,0,14.57,Below Average,1704084570000,-1.62,-0.79,9.49,0.664,-0.288,-0.854,3.41,3.44,3.75,3.97,3.03,2.74,158.0,4.1,576.0,0.25,1.56,1.04,203.0,0.25,9.9,7.2,7.2,69.0,135.0,13.0,midfoot,131.0,73.0,149.0,131.0
SH0161,P161,24,F,161.7,62.9,concrete,running_shoes,0,14.1,Below Average,1704084600000,-0.99,-0.94,9.11,-0.651,-0.356,-0.949,3.27,3.3,3.34,4.2,2.75,2.84,176.0,4.2,514.0,0.28,1.72,1.12,190.0,0.06,8.7,8.7,8.5,76.0,133.0,18.0,midfoot,397.0,63.0,131.0,102.0
SH0162,P162,24,F,164.7,47.1,grass,spikes,0,13.98,Below Average,1704084630000,1.49,-1.18,10.06,0.656,-0.117,0.314,3.87,3.31,3.71,3.1,2.78,2.86,166.0,3.4,606.0,0.13,1.41,1.35,258.0,0.06,8.5,8.9,7.0,73.0,118.0,10.0,midfoot,171.0,73.0,129.0,102.0
SH0163,P163,29,M,173.0,75.2,rubberized_floor,running_shoes,0,12.26,Good,1704084660000,0.81,1.4,10.33,0.005,0.295,-0.874,2.9,3.22,3.0,3.14,3.89,3.26,145.0,3.5,491.0,0.59,1.7,1.05,192.0,0.07,6.7,9.9,9.3,62.0,87.0,18.0,heel,249.0,77.0,135.0,106.0
SH0164,P164,25,F,156.1,50.3,synthetic_track,running_shoes,0,13.12,Average,1704084690000,-0.69,0.41,8.64,-0.222,0.035,1.191,3.58,3.23,3.33,2.97,3.02,3.05,160.0,3.6,630.0,0.17,1.27,0.81,260.0,0.16,9.5,6.9,6.8,78.0,90.0,24.0,midfoot,359.0,68.0,139.0,121.0
SH0165,P165,33,M,165.6,97.3,grass,spikes,0,16.0,Below Average,1704084720000,-0.39,0.65,9.39,0.372,-0.267,0.752,3.92,3.85,4.23,4.0,2.59,2.5,180.0,3.7,538.0,0.34,1.36,1.18,223.0,0.25,7.4,10.0,7.9,92.0,128.0,16.0,midfoot,276.0,70.0,118.0,93.0
SH0166,P166,20,F,162.1,60.8,rubberized_floor,turf_shoes,0,12.57,Average,1704084750000,-0.82,1.36,9.57,0.21,0.043,-0.889,2.93,2.97,3.09,3.57,3.03,3.18,176.0,4.1,543.0,0.31,1.61,0.85,238.0,0.09,9.9,8.7,7.1,94.0,90.0,19.0,forefoot,315.0,76.0,142.0,115.0
SH0167,P167,20,F,153.8,50.1,concrete,running_shoes,0,13.76,Below Average,1704084780000,-1.44,-0.78,9.06,-0.142,-0.266,-1.153,3.59,3.62,3.25,3.31,3.35,2.91,134.0,4.2,507.0,0.41,1.24,1.17,272.0,0.19,7.2,7.5,9.1,93.0,104.0,21.0,forefoot,369.0,78.0,122.0,88.0
SH0168,P168,28,F,169.9,62.9,grass,running_shoes,0,15.41,Below Average,1704084810000,-1.5,0.92,10.2,-0.337,0.452,-1.08,4.28,3.57,3.63,3.93,2.23,2.6,126.0,3.9,522.0,0.57,1.73,1.29,225.0,0.08,6.1,8.2,7.8,84.0,110.0,21.0,forefoot,145.0,73.0,120.0,87.0
SH0169,P169,25,F,154.4,61.6,concrete,basketball_shoes,0,15.09,Below Average,1704084840000,-2.14,0.38,9.01,0.486,0.318,1.149,3.81,3.52,3.72,4.03,2.65,2.65,172.0,4.3,536.0,0.15,1.27,0.96,165.0,0.27,9.5,6.5,8.9,72.0,127.0,12.0,midfoot,171.0,74.0,149.0,132.0
SH0170,P170,27,M,179.5,73.1,concrete,running_shoes,0,12.49,Good,1704084870000,-1.86,-0.22,8.82,0.321,0.259,-0.946,3.15,3.07,3.3,2.97,3.21,3.2,170.0,3.7,702.0,0.35,1.88,1.3,236.0,0.13,7.6,7.3,8.0,88.0,109.0,14.0,forefoot,172.0,79.0,131.0,113.0
SH0171,P171,25,M,159.9,65.4,concrete,spikes,0,11.77,Good,1704084900000,0.22,0.16,9.21,-0.084,0.466,-0.294,3.09,2.72,2.9,3.06,3.07,3.4,187.0,3.5,508.0,0.38,1.36,1.25,281.0,0.17,6.2,9.4,6.8,85.0,99.0,23.0,forefoot,154.0,70.0,113.0,94.0
SH0172,P172,15,F,161.0,64.8,concrete,running_shoes,0,14.8,Below Average,1704084930000,0.22,-0.69,9.9,0.254,0.489,-0.564,3.97,3.87,3.71,3.26,2.89,2.7,142.0,3.2,446.0,0.24,1.5,1.25,165.0,0.19,8.2,6.3,6.1,93.0,118.0,22.0,forefoot,208.0,62.0,137.0,107.0
SH0173,P173,26,F,162.3,45.2,concrete,running_shoes,0,14.41,Below Average,1704084960000,2.23,0.24,9.58,-0.719,-0.437,-0.75,3.3,3.49,3.46,4.16,2.26,2.78,145.0,3.4,605.0,0.34,1.53,1.39,244.0,0.07,6.2,6.6,6.2,89.0,111.0,17.0,forefoot,151.0,64.0,117.0,90.0
SH0174,P174,32,M,173.1,66.2,grass,turf_shoes,0,12.93,Average,1704084990000,2.35,-1.43,10.11,0.461,-0.203,-0.874,3.38,3.06,3.1,3.39,2.65,3.09,191.0,3.3,683.0,0.14,1.76,1.04,292.0,0.14,9.7,8.6,6.4,72.0,104.0,9.0,forefoot,137.0,68.0,122.0,92.0
SH0175,P175,30,M,171.5,74.5,synthetic_track,spikes,0,11.2,Very Good,1704085020000,-1.74,0.9,9.91,-0.495,-0.133,-0.946,2.85,2.98,2.82,2.54,3.76,3.57,150.0,3.6,585.0,0.52,1.72,1.19,164.0,0.24,9.5,9.6,9.7,86.0,125.0,18.0,forefoot,339.0,74.0,118.0,94.0
SH0176,P176,20,F,151.8,53.0,rubberized_floor,running_shoes,0,12.93,Average,1704085050000,-2.41,-0.3,9.6,0.191,0.163,0.807,3.5,3.23,3.48,2.72,2.74,3.09,130.0,3.5,563.0,0.42,1.48,1.36,248.0,0.14,6.3,8.2,8.4,73.0,131.0,11.0,midfoot,269.0,75.0,144.0,125.0
SH0177,P177,17,M,183.5,72.4,synthetic_track,turf_shoes,0,11.01,Very Good,1704085080000,-0.24,-1.07,9.28,0.723,-0.18,0.883,2.94,2.73,2.75,2.6,4.19,3.63,187.0,3.6,484.0,0.32,1.5,1.02,229.0,0.28,8.1,9.2,7.4,69.0,97.0,24.0,midfoot,273.0,73.0,114.0,87.0
SH0178,P178,19,F,161.5,88.1,grass,spikes,0,16.0,Below Average,1704085110000,-0.7,-1.26,8.89,0.721,-0.091,-0.08,3.75,4.16,3.79,4.3,2.05,2.5,135.0,3.7,525.0,0.24,1.4,1.19,161.0,0.15,8.6,9.3,7.7,94.0,116.0,20.0,forefoot,255.0,61.0,124.0,90.0
SH0179,P179,28,F,162.3,62.9,concrete,cross_trainers,0,14.36,Below Average,1704085140000,0.87,-1.31,9.43,-0.416,-0.03,-0.107,3.73,3.5,3.84,3.29,2.88,2.79,175.0,3.3,532.0,0.12,1.79,1.3,230.0,0.06,9.9,9.6,8.4,69.0,108.0,19.0,forefoot,323.0,66.0,128.0,111.0
SH0180,P180,19,F,161.6,73.1,gym_floor,spikes,0,13.61,Below Average,1704085170000,0.97,1.47,9.06,-0.003,-0.17,-0.143,3.04,3.61,3.31,3.64,3.36,2.94,142.0,3.8,630.0,0.57,1.24,1.01,214.0,0.18,9.4,7.6,6.8,92.0,126.0,17.0,heel,240.0,61.0,112.0,88.0
SH0181,P181,19,M,168.8,80.7,grass,turf_shoes,0,14.33,Below Average,1704085200000,2.21,1.14,9.53,0.439,0.062,0.126,3.78,3.32,3.64,3.61,2.36,2.79,172.0,4.5,418.0,0.34,1.25,1.13,198.0,0.37,9.4,10.0,7.7,67.0,117.0,15.0,forefoot,204.0,65.0,133.0,99.0
SH0182,P182,31,F,166.6,66.1,synthetic_track,basketball_shoes,0,14.29,Below Average,1704085230000,-2.22,0.11,8.64,0.694,0.266,0.379,3.59,3.35,3.59,3.76,3.16,2.8,132.0,3.9,707.0,0.34,1.7,0.81,208.0,0.2,6.8,8.0,9.8,85.0,116.0,13.0,forefoot,165.0,79.0,125.0,102.0
SH0183,P183,33,F,157.4,64.1,gym_floor,turf_shoes,0,14.35,Below Average,1704085260000,-2.45,-1.25,10.12,0.434,0.415,0.851,3.59,3.43,3.79,3.54,2.99,2.79,165.0,4.5,610.0,0.18,1.38,0.93,300.0,0.06,9.2,6.7,6.3,89.0,102.0,22.0,forefoot,370.0,79.0,119.0,102.0
SH0184,P184,26,F,156.2,66.0,rubberized_floor,spikes,0,13.15,Average,1704085290000,1.94,-0.12,9.71,-0.498,0.305,1.122,3.01,3.26,3.2,3.68,2.76,3.04,154.0,3.9,505.0,0.1,1.81,1.23,293.0,0.13,7.5,6.2,9.0,71.0,91.0,18.0,forefoot,207.0,74.0,136.0,114.0
SH0185,P185,25,M,187.4,46.1,gym_floor,spikes,0,10.82,Very Good,1704085320000,-1.15,-0.39,9.64,0.611,0.442,0.575,2.51,2.83,2.69,2.8,3.08,3.7,158.0,3.6,500.0,0.53,1.8,0.96,237.0,0.24,6.5,7.0,9.7,81.0,102.0,22.0,forefoot,135.0,63.0,124.0,90.0
SH0186,P186,28,M,176.8,79.1,grass,turf_shoes,0,13.31,Average,1704085350000,1.32,-0.76,8.57,-0.637,0.228,-0.721,3.32,3.35,3.5,3.15,2.85,3.01,150.0,4.2,518.0,0.45,1.64,1.22,229.0,0.27,7.6,6.6,8.7,72.0,134.0,18.0,forefoot,235.0,75.0,147.0,122.0
SH0187,P187,27,F,159.9,63.1,gym_floor,turf_shoes,0,13.69,Below Average,1704085380000,1.98,0.56,10.22,-0.658,0.365,-0.431,3.12,3.31,3.46,3.8,2.54,2.92,149.0,3.5,454.0,0.47,1.91,1.25,170.0,0.17,7.3,9.0,6.6,88.0,95.0,9.0,forefoot,358.0,73.0,123.0,97.0
SH0188,P188,19,F,160.6,79.1,synthetic_track,turf_shoes,0,14.55,Below Average,1704085410000,-1.33,1.09,9.12,0.311,-0.484,-0.306,3.79,3.81,3.67,3.27,2.59,2.75,166.0,4.0,503.0,0.28,1.85,0.98,195.0,0.21,8.3,9.0,7.5,89.0,136.0,17.0,midfoot,371.0,62.0,111.0,82.0
SH0189,P189,29,M,177.3,73.1,gym_floor,turf_shoes,0,11.29,Very Good,1704085440000,-0.31,-0.81,9.08,0.436,-0.424,0.786,3.14,2.96,2.8,2.39,3.44,3.54,153.0,4.4,439.0,0.27,1.33,1.14,291.0,0.11,9.8,6.0,7.0,64.0,114.0,23.0,forefoot,398.0,74.0,117.0,82.0
SH0190,P190,19,M,173.6,50.7,concrete,basketball_shoes,0,11.97,Good,1704085470000,0.29,-0.59,8.67,-0.798,-0.05,0.808,2.75,2.89,3.13,3.2,3.44,3.34,194.0,4.5,516.0,0.22,1.91,1.0,175.0,0.2,6.5,9.5,8.5,70.0,124.0,16.0,heel,116.0,67.0,126.0,101.0
SH0191,P191,27,M,184.1,59.0,grass,spikes,0,12.36,Good,1704085500000,0.25,0.98,9.11,-0.162,-0.183,-0.078,2.76,2.9,2.95,3.75,2.96,3.24,168.0,3.6,537.0,0.5,1.79,1.06,158.0,0.05,7.3,7.3,9.1,88.0,109.0,10.0,forefoot,380.0,77.0,146.0,121.0
SH0192,P192,25,F,164.5,62.5,rubberized_floor,running_shoes,0,13.37,Average,1704085530000,2.33,-0.85,10.12,-0.484,-0.286,0.423,3.67,3.16,3.27,3.27,2.88,2.99,159.0,3.2,606.0,0.58,1.93,0.9,179.0,0.2,6.5,6.3,9.6,76.0,116.0,9.0,forefoot,379.0,78.0,149.0,134.0
SH0193,P193,22,F,169.6,45.0,gym_floor,running_shoes,0,13.04,Average,1704085560000,0.67,-1.28,10.32,0.732,-0.422,0.078,3.26,3.04,3.32,3.41,2.83,3.07,144.0,4.3,564.0,0.32,1.35,0.91,181.0,0.16,9.1,7.1,9.1,76.0,137.0,24.0,forefoot,207.0,63.0,123.0,99.0
SH0194,P194,18,M,173.0,68.0,concrete,cross_trainers,0,11.12,Very Good,1704085590000,1.98,0.92,8.51,-0.288,-0.078,-0.649,2.6,2.92,2.94,2.67,3.16,3.6,169.0,3.6,425.0,0.59,1.36,0.93,287.0,0.27,7.2,6.7,7.5,74.0,136.0,9.0,forefoot,270.0,72.0,114.0,91.0
SH0195,P195,15,M,185.7,82.1,grass,running_shoes,0,13.42,Average,1704085620000,-2.03,-0.22,8.76,0.716,-0.025,-0.439,3.49,3.11,3.39,3.42,3.3,2.98,186.0,3.2,611.0,0.21,1.91,0.81,151.0,0.34,9.0,7.9,7.8,73.0,112.0,20.0,midfoot,387.0,71.0,127.0,93.0
SH0196,P196,26,F,169.6,45.0,gym_floor,cross_trainers,0,13.34,Average,1704085650000,-1.87,1.03,9.22,0.257,-0.029,-0.723,3.53,3.51,3.48,2.82,3.12,3.0,127.0,3.3,482.0,0.37,1.95,1.3,221.0,0.11,9.4,7.2,7.7,61.0,137.0,12.0,forefoot,125.0,79.0,142.0,113.0
SH0197,P197,33,M,173.0,78.1,gym_floor,cross_trainers,0,12.82,Average,1704085680000,-1.57,0.99,10.03,-0.239,-0.123,0.081,3.03,3.05,3.21,3.53,2.5,3.12,192.0,3.4,488.0,0.14,1.49,1.25,269.0,0.26,8.2,9.3,9.8,77.0,82.0,25.0,forefoot,146.0,73.0,125.0,98.0
SH0198,P198,27,M,175.9,54.0,concrete,spikes,0,11.81,Good,1704085710000,1.68,-0.71,9.4,0.06,0.164,0.682,3.12,2.73,2.81,3.16,3.24,3.39,169.0,4.3,564.0,0.36,1.94,1.09,187.0,0.36,8.0,6.5,9.2,92.0,137.0,17.0,midfoot,334.0,63.0,127.0,111.0
SH0199,P199,29,F,153.5,57.9,concrete,basketball_shoes,0,15.05,Below Average,1704085740000,-0.34,0.37,8.65,0.006,-0.317,0.178,3.7,3.75,3.85,3.74,2.8,2.66,126.0,4.0,599.0,0.41,1.45,0.85,169.0,0.17,6.4,9.7,8.8,81.0,130.0,9.0,forefoot,367.0,60.0,108.0,74.0
SH0200,P200,29,F,154.1,45.0,rubberized_floor,cross_trainers,0,13.43,Average,1704085770000,-2.17,-1.42,8.99,0.61,-0.084,0.529,3.6,3.12,3.46,3.24,3.48,2.98,156.0,4.4,553.0,0.16,1.63,1.33,192.0,0.16,7.6,7.9,6.3,93.0,97.0,16.0,midfoot,149.0,70.0,139.0,107.0
SH0201,P201,26,F,172.4,69.1,concrete,basketball_shoes,0,14.58,Below Average,1704085800000,-1.18,1.3,9.94,0.406,-0.281,-0.137,3.44,3.83,3.65,3.65,2.87,2.74,150.0,3.5,641.0,0.39,1.78,1.05,158.0,0.35,8.5,8.8,8.8,76.0,96.0,12.0,forefoot,366.0,68.0,138.0,121.0
SH0202,P202,24,M,171.2,73.0,concrete,turf_shoes,0,11.79,Good,1704085830000,1.35,-0.87,9.5,-0.426,-0.09,0.672,2.95,3.0,2.98,2.87,3.76,3.39,169.0,3.8,565.0,0.19,1.85,1.13,292.0,0.18,6.5,9.1,9.7,65.0,111.0,10.0,heel,155.0,65.0,121.0,99.0
SH0203,P203,27,F,160.5,72.2,rubberized_floor,basketball_shoes,0,15.18,Below Average,1704085860000,0.05,-1.06,9.72,0.105,0.215,1.05,4.15,4.08,4.01,2.93,3.07,2.64,131.0,4.4,503.0,0.31,1.21,1.07,221.0,0.26,6.2,8.2,7.4,90.0,120.0,15.0,midfoot,372.0,62.0,124.0,103.0
SH0204,P204,24,M,168.9,71.5,concrete,basketball_shoes,1,13.18,Average,1704085890000,-1.69,0.94,10.21,0.663,-0.235,0.969,3.25,3.17,3.13,3.63,2.82,3.03,180.0,3.0,471.0,0.5,1.26,0.91,198.0,0.39,7.5,7.9,7.4,82.0,81.0,15.0,midfoot,190.0,62.0,132.0,105.0
SH0205,P205,16,F,157.6,59.0,grass,cross_trainers,0,15.56,Below Average,1704085920000,-1.46,0.01,9.59,-0.346,0.448,0.822,4.34,3.68,3.88,3.67,2.8,2.57,145.0,4.0,405.0,0.16,1.54,0.96,275.0,0.15,9.6,6.2,9.7,88.0,82.0,24.0,forefoot,191.0,67.0,110.0,75.0
SH0206,P206,26,M,167.1,71.3,gym_floor,spikes,0,11.44,Very Good,1704085950000,-0.29,1.35,8.99,0.051,-0.018,0.487,2.91,2.73,3.02,2.77,2.89,3.5,197.0,3.8,467.0,0.28,1.39,0.83,292.0,0.19,7.1,8.6,8.1,84.0,109.0,17.0,forefoot,236.0,69.0,138.0,104.0
SH0207,P207,19,M,172.7,68.7,synthetic_track,basketball_shoes,0,12.77,Average,1704085980000,-1.66,0.78,10.47,0.713,-0.303,0.901,3.1,3.19,3.23,3.25,3.39,3.13,151.0,4.4,591.0,0.44,1.71,0.86,229.0,0.19,8.4,6.5,6.3,81.0,85.0,15.0,forefoot,396.0,71.0,139.0,117.0
SH0208,P208,16,F,160.2,52.0,gym_floor,running_shoes,0,13.02,Average,1704086010000,0.75,-1.43,10.12,0.059,-0.222,-1.052,3.4,3.29,3.21,3.12,2.66,3.07,145.0,3.3,537.0,0.43,1.98,0.91,188.0,0.34,8.4,7.7,7.8,77.0,113.0,13.0,forefoot,126.0,74.0,122.0,93.0
SH0209,P209,25,F,152.3,45.0,gym_floor,cross_trainers,0,12.28,Good,1704086040000,-2.0,-0.57,9.83,0.265,-0.214,-0.096,2.87,2.96,2.89,3.56,2.86,3.26,160.0,3.1,468.0,0.17,1.72,1.0,248.0,0.09,8.8,8.2,7.0,79.0,106.0,13.0,midfoot,361.0,80.0,144.0,121.0
SH0210,P210,32,F,158.4,50.6,rubberized_floor,spikes,0,12.58,Average,1704086070000,-0.1,-0.4,10.33,-0.211,-0.127,-0.28,2.8,3.33,3.15,3.3,3.61,3.18,147.0,3.7,602.0,0.43,1.21,1.32,216.0,0.22,7.8,7.4,6.6,74.0,121.0,15.0,heel,280.0,76.0,121.0,98.0
SH0211,P211,20,F,167.6,45.0,concrete,basketball_shoes,0,14.09,Below Average,1704086100000,0.21,1.0,8.75,-0.592,0.057,1.071,3.94,3.25,3.31,3.59,2.74,2.84,159.0,4.2,638.0,0.24,1.39,1.27,234.0,0.31,6.2,7.5,8.0,72.0,117.0,18.0,forefoot,292.0,65.0,109.0,91.0
SH0212,P212,25,M,166.2,70.0,concrete,running_shoes,0,12.15,Good,1704086130000,1.7,0.6,10.08,-0.238,-0.095,-0.255,2.71,3.17,2.92,3.35,2.89,3.29,190.0,4.1,526.0,0.57,1.53,1.2,178.0,0.23,7.9,8.5,7.8,79.0,129.0,21.0,midfoot,134.0,74.0,134.0,102.0
SH0213,P213,22,F,166.8,45.0,rubberized_floor,basketball_shoes,0,13.29,Average,1704086160000,-2.46,-0.99,9.66,0.343,0.417,0.493,3.46,3.28,3.45,3.11,3.22,3.01,154.0,3.1,431.0,0.2,1.87,1.23,181.0,0.05,9.6,6.5,10.0,95.0,97.0,19.0,forefoot,274.0,78.0,131.0,102.0
SH0214,P214,27,M,169.9,75.6,grass,spikes,0,12.91,Average,1704086190000,-0.82,-0.87,9.13,-0.514,0.402,-0.247,3.18,3.41,3.26,3.06,2.78,3.1,149.0,4.0,611.0,0.36,1.72,1.33,223.0,0.26,7.8,9.6,9.0,71.0,139.0,19.0,forefoot,198.0,72.0,115.0,99.0
SH0215,P215,26,F,150.0,52.1,rubberized_floor,turf_shoes,0,12.33,Good,1704086220000,-1.68,0.57,9.53,-0.48,-0.18,0.22,3.27,3.19,3.17,2.7,2.69,3.24,151.0,4.0,523.0,0.12,1.7,1.27,246.0,0.29,8.0,7.4,7.1,90.0,101.0,21.0,forefoot,365.0,71.0,131.0,105.0
SH0216,P216,26,M,171.6,70.6,gym_floor,turf_shoes,1,12.04,Good,1704086250000,-0.09,-1.22,10.04,0.396,-0.188,-0.465,3.32,3.09,2.97,2.65,3.77,3.32,181.0,3.5,525.0,0.24,2.0,1.25,155.0,0.24,8.6,7.4,6.2,87.0,112.0,22.0,forefoot,210.0,65.0,123.0,106.0
SH0217,P217,32,F,161.1,65.7,rubberized_floor,cross_trainers,0,14.44,Below Average,1704086280000,2.15,-1.48,10.0,0.645,-0.36,-0.969,3.18,3.79,3.37,4.1,2.69,2.77,160.0,4.4,568.0,0.2,1.73,0.85,195.0,0.21,8.4,6.7,8.9,81.0,90.0,21.0,forefoot,299.0,63.0,131.0,113.0
SH0218,P218,29,F,164.1,45.0,concrete,running_shoes,0,13.89,Below Average,1704086310000,1.24,-0.71,10.26,0.627,-0.304,0.273,3.29,3.4,3.25,3.94,2.4,2.88,165.0,3.8,599.0,0.45,1.4,0.99,270.0,0.36,7.3,6.1,7.4,78.0,107.0,9.0,midfoot,104.0,79.0,138.0,117.0
SH0219,P219,16,F,171.3,80.1,concrete,running_shoes,0,15.29,Below Average,1704086340000,0.76,0.68,8.5,0.699,-0.335,-0.639,3.47,3.58,3.96,4.28,2.37,2.62,172.0,3.4,483.0,0.11,1.38,0.83,227.0,0.14,6.4,7.7,6.9,93.0,134.0,18.0,forefoot,214.0,68.0,137.0,113.0
SH0220,P220,32,M,163.5,78.5,concrete,turf_shoes,0,13.02,Average,1704086370000,-2.02,-0.9,9.33,-0.47,0.377,-0.82,3.31,3.22,3.03,3.46,3.02,3.07,168.0,4.2,619.0,0.41,1.87,1.1,255.0,0.33,6.5,6.1,7.2,70.0,110.0,15.0,forefoot,169.0,63.0,111.0,94.0
SH0221,P221,32,F,151.7,68.2,rubberized_floor,cross_trainers,0,15.21,Below Average,1704086400000,-2.46,1.02,8.56,0.704,0.392,0.085,3.4,3.78,3.83,4.21,2.67,2.63,174.0,3.2,517.0,0.51,1.37,1.04,226.0,0.33,7.3,7.6,6.6,75.0,109.0,22.0,midfoot,247.0,65.0,141.0,114.0
SH0222,P222,18,F,152.4,50.8,rubberized_floor,turf_shoes,0,12.26,Good,1704086430000,1.52,-1.37,10.48,-0.591,0.296,-0.253,2.7,2.94,3.15,3.47,3.25,3.26,132.0,3.2,535.0,0.31,1.72,1.23,189.0,0.35,6.7,6.3,9.8,90.0,126.0,11.0,midfoot,331.0,72.0,125.0,105.0
SH0223,P223,23,M,175.2,57.3,grass,cross_trainers,0,11.96,Good,1704086460000,-0.12,-0.41,9.78,0.642,-0.336,-0.285,3.31,2.78,3.04,2.83,2.87,3.35,143.0,4.3,621.0,0.36,1.74,1.3,197.0,0.1,6.6,6.2,9.5,76.0,116.0,9.0,forefoot,110.0,68.0,144.0,110.0
SH0224,P224,22,F,169.7,47.6,synthetic_track,basketball_shoes,0,13.16,Average,1704086490000,2.03,0.05,8.81,0.675,0.257,0.556,3.24,3.44,3.44,3.04,3.29,3.04,150.0,4.2,465.0,0.52,1.72,0.94,191.0,0.12,7.1,7.3,6.5,76.0,135.0,10.0,midfoot,306.0,62.0,139.0,112.0
SH0225,P225,26,M,185.4,61.7,concrete,basketball_shoes,0,12.54,Average,1704086520000,-2.3,1.02,9.4,0.219,-0.279,0.425,3.13,3.31,3.28,2.81,3.54,3.19,165.0,3.3,605.0,0.3,1.86,0.94,246.0,0.14,8.1,9.2,7.4,64.0,128.0,10.0,forefoot,357.0,67.0,146.0,111.0
SH0226,P226,18,F,154.4,53.7,synthetic_track,cross_trainers,0,13.47,Average,1704086550000,-2.0,0.62,8.56,0.592,-0.361,-0.894,3.23,3.22,3.36,3.65,2.59,2.97,155.0,3.9,657.0,0.23,1.96,0.9,200.0,0.21,9.9,6.1,7.9,80.0,106.0,15.0,midfoot,306.0,77.0,127.0,99.0
SH0227,P227,34,M,160.5,84.2,synthetic_track,basketball_shoes,0,14.47,Below Average,1704086580000,-1.79,-0.86,8.71,0.293,0.161,1.081,3.69,3.89,3.64,3.25,3.02,2.76,194.0,3.1,580.0,0.2,1.55,1.15,157.0,0.33,9.3,10.0,7.6,81.0,92.0,16.0,midfoot,331.0,70.0,122.0,88.0
SH0228,P228,19,M,173.8,58.4,synthetic_track,spikes,0,10.99,Very Good,1704086610000,-1.1,0.69,8.98,-0.525,0.03,-0.504,2.5,2.94,2.91,2.64,3.83,3.64,154.0,4.2,432.0,0.4,1.98,1.02,295.0,0.24,8.7,6.3,7.6,70.0,87.0,20.0,midfoot,212.0,79.0,120.0,99.0
SH0229,P229,21,M,173.1,76.6,grass,cross_trainers,0,13.45,Average,1704086640000,1.62,-1.19,10.39,0.472,-0.319,0.509,3.3,3.35,3.3,3.5,2.84,2.97,162.0,3.1,584.0,0.44,1.55,0.92,195.0,0.27,9.3,9.2,7.9,70.0,94.0,20.0,forefoot,128.0,60.0,106.0,90.0
SH0230,P230,34,M,161.8,64.7,grass,cross_trainers,0,14.15,Below Average,1704086670000,2.18,0.06,9.23,0.597,-0.105,-0.396,3.6,3.29,3.36,3.89,2.5,2.83,164.0,4.4,508.0,0.29,1.73,0.95,174.0,0.11,6.5,6.2,7.2,87.0,81.0,17.0,forefoot,252.0,71.0,124.0,103.0
SH0231,P231,32,F,166.3,61.9,gym_floor,running_shoes,0,13.95,Below Average,1704086700000,0.26,-0.42,8.75,0.143,0.025,-0.713,3.66,3.65,3.56,3.08,2.81,2.87,133.0,4.1,554.0,0.44,1.22,1.05,239.0,0.37,7.3,8.7,6.9,88.0,135.0,25.0,forefoot,287.0,68.0,143.0,123.0
SH0232,P232,15,M,181.0,70.6,synthetic_track,basketball_shoes,0,12.03,Good,1704086730000,1.47,-1.24,8.87,0.413,-0.478,0.761,2.89,2.82,2.8,3.52,2.68,3.33,175.0,3.8,591.0,0.47,1.61,1.05,296.0,0.36,7.6,6.1,7.3,72.0,115.0,22.0,forefoot,105.0,61.0,122.0,88.0
SH0233,P233,22,F,158.9,60.0,synthetic_track,cross_trainers,0,13.01,Average,1704086760000,1.71,0.35,9.79,-0.755,0.329,0.692,3.0,3.17,3.21,3.63,2.78,3.07,153.0,3.7,446.0,0.24,1.22,1.16,262.0,0.35,7.6,7.2,9.5,77.0,88.0,20.0,forefoot,232.0,61.0,134.0,117.0
SH0234,P234,19,F,157.4,74.6,rubberized_floor,running_shoes,0,15.14,Below Average,1704086790000,0.6,0.91,9.36,0.457,-0.038,1.058,3.49,3.77,4.07,3.81,2.63,2.64,166.0,4.2,628.0,0.12,1.57,1.19,232.0,0.12,9.3,6.2,9.4,71.0,97.0,17.0,forefoot,148.0,76.0,122.0,102.0
SH0235,P235,30,F,169.3,45.0,grass,spikes,0,14.3,Below Average,1704086820000,1.45,0.36,8.73,-0.55,-0.063,-0.247,3.64,3.53,3.58,3.55,3.07,2.8,134.0,4.0,471.0,0.53,1.41,1.09,164.0,0.26,9.9,7.3,8.4,63.0,138.0,20.0,midfoot,311.0,72.0,130.0,98.0
SH0236,P236,29,M,187.4,70.0,rubberized_floor,running_shoes,0,11.91,Good,1704086850000,2.16,0.25,9.58,-0.073,-0.291,-1.191,2.87,2.96,2.8,3.28,3.01,3.36,143.0,4.2,590.0,0.39,1.81,0.89,152.0,0.1,8.3,7.0,6.9,71.0,87.0,25.0,forefoot,139.0,64.0,127.0,111.0
SH0237,P237,31,F,159.8,45.0,concrete,running_shoes,0,14.25,Below Average,1704086880000,-0.43,-0.69,8.91,0.246,-0.084,-0.769,3.71,3.34,3.67,3.52,3.02,2.81,149.0,4.4,591.0,0.17,1.71,1.03,285.0,0.14,9.8,7.3,9.8,88.0,140.0,12.0,forefoot,256.0,66.0,107.0,87.0
SH0238,P238,30,F,161.2,53.5,concrete,running_shoes,0,13.61,Below Average,1704086910000,-1.64,1.12,9.91,-0.664,0.15,0.369,3.58,3.55,3.18,3.3,3.47,2.94,153.0,3.3,564.0,0.19,1.85,0.88,297.0,0.4,7.9,9.8,6.7,79.0,90.0,13.0,forefoot,193.0,66.0,145.0,126.0
SH0239,P239,29,M,181.2,72.1,synthetic_track,basketball_shoes,0,11.7,Good,1704086940000,0.76,0.64,9.88,-0.289,-0.248,1.094,2.68,2.89,2.94,3.18,4.0,3.42,141.0,3.7,573.0,0.49,1.74,1.18,268.0,0.24,9.6,6.1,8.2,71.0,88.0,23.0,forefoot,363.0,72.0,139.0,108.0
SH0240,P240,17,M,170.3,57.2,grass,spikes,0,12.73,Average,1704086970000,0.07,0.91,9.25,-0.179,-0.404,0.995,2.85,3.23,3.32,3.33,2.63,3.14,190.0,3.3,568.0,0.55,1.72,1.33,285.0,0.21,7.9,8.2,9.7,70.0,104.0,15.0,forefoot,181.0,77.0,120.0,91.0
SH0241,P241,32,F,158.6,47.7,concrete,spikes,0,13.31,Average,1704087000000,1.34,1.16,8.94,-0.058,-0.03,0.897,3.25,3.55,3.46,3.06,3.32,3.0,155.0,3.8,555.0,0.27,1.62,1.19,173.0,0.21,7.7,8.9,9.4,74.0,121.0,12.0,midfoot,363.0,68.0,145.0,110.0
SH0242,P242,29,F,160.8,55.5,synthetic_track,running_shoes,0,13.25,Average,1704087030000,2.25,1.37,8.7,-0.776,-0.339,1.19,3.13,3.5,3.2,3.41,2.63,3.02,163.0,4.0,547.0,0.21,1.23,1.05,219.0,0.26,7.2,9.2,9.2,81.0,130.0,15.0,forefoot,180.0,71.0,129.0,105.0
SH0243,P243,32,M,177.1,64.2,concrete,turf_shoes,0,11.66,Good,1704087060000,-0.44,-0.82,9.67,-0.206,-0.051,0.089,2.59,2.92,2.94,3.22,3.02,3.43,174.0,4.1,535.0,0.19,1.4,1.29,182.0,0.07,9.8,6.5,8.0,71.0,89.0,20.0,forefoot,143.0,60.0,133.0,114.0
SH0244,P244,28,F,157.9,45.0,concrete,turf_shoes,0,13.54,Below Average,1704087090000,0.43,-0.55,8.67,-0.443,-0.312,-0.173,3.76,3.43,3.37,2.98,3.14,2.95,157.0,4.4,475.0,0.51,1.46,0.94,225.0,0.07,7.1,8.0,9.0,85.0,128.0,13.0,midfoot,228.0,78.0,152.0,126.0
SH0245,P245,18,F,166.9,61.5,concrete,basketball_shoes,0,13.55,Below Average,1704087120000,1.27,-0.84,9.28,0.585,0.224,-0.231,3.18,3.36,3.32,3.67,2.62,2.95,179.0,3.6,495.0,0.14,1.27,1.15,158.0,0.23,8.4,7.7,7.7,78.0,89.0,10.0,forefoot,130.0,72.0,120.0,100.0
SH0246,P246,26,M,174.6,65.1,concrete,running_shoes,0,12.08,Good,1704087150000,-0.86,-0.87,9.48,-0.769,0.171,0.056,2.95,2.86,2.9,3.37,3.84,3.31,156.0,3.8,536.0,0.31,1.96,0.88,201.0,0.1,9.9,6.9,9.1,90.0,99.0,19.0,forefoot,242.0,70.0,139.0,122.0
SH0247,P247,17,M,180.7,73.6,concrete,running_shoes,0,12.0,Good,1704087180000,-0.48,-1.09,9.51,-0.598,-0.023,0.633,2.94,3.13,2.78,3.15,3.01,3.33,147.0,3.3,675.0,0.3,1.88,1.01,204.0,0.25,8.6,8.8,8.3,72.0,85.0,25.0,forefoot,122.0,78.0,130.0,102.0
SH0248,P248,26,M,188.7,57.8,rubberized_floor,running_shoes,0,10.98,Very Good,1704087210000,-1.19,-0.47,9.32,0.353,0.012,1.065,2.79,2.9,2.63,2.66,2.97,3.64,193.0,3.0,557.0,0.47,1.95,1.19,221.0,0.06,7.8,6.2,9.7,84.0,109.0,10.0,forefoot,119.0,71.0,136.0,111.0
SH0249,P249,32,F,164.1,60.6,synthetic_track,turf_shoes,0,12.9,Average,1704087240000,0.33,0.45,9.2,0.667,-0.366,0.412,3.13,3.08,3.27,3.43,2.49,3.1,149.0,3.1,483.0,0.26,1.85,1.21,165.0,0.15,8.9,8.8,7.2,89.0,139.0,16.0,forefoot,142.0,66.0,130.0,113.0
SH0250,P250,28,M,188.7,68.1,grass,spikes,0,12.49,Good,1704087270000,2.06,0.84,10.01,0.171,0.127,0.331,3.4,2.98,2.91,3.19,3.37,3.2,169.0,3.8,681.0,0.51,1.56,1.14,274.0,0.11,8.1,6.2,8.5,81.0,116.0,11.0,forefoot,394.0,68.0,117.0,99.0
SH0251,P251,18,M,183.4,89.2,gym_floor,turf_shoes,0,11.79,Good,1704087300000,1.97,-0.33,9.13,-0.06,-0.11,0.873,2.77,2.98,2.84,3.2,3.98,3.39,189.0,3.0,660.0,0.38,1.47,0.99,278.0,0.14,8.6,9.4,8.4,78.0,107.0,8.0,forefoot,298.0,72.0,141.0,115.0
SH0252,P252,18,F,163.7,45.0,rubberized_floor,basketball_shoes,0,13.78,Below Average,1704087330000,-2.1,-0.21,9.61,-0.274,0.22,0.345,3.04,3.55,3.38,3.81,2.71,2.9,177.0,4.2,624.0,0.39,1.4,0.92,227.0,0.11,7.4,7.9,7.2,94.0,86.0,24.0,heel,258.0,74.0,132.0,104.0
SH0253,P253,23,M,164.8,57.7,concrete,spikes,0,10.81,Very Good,1704087360000,0.4,-0.64,9.23,-0.666,-0.448,-0.592,2.55,2.86,2.7,2.7,3.07,3.7,158.0,3.8,502.0,0.29,1.65,0.87,257.0,0.18,10.0,7.7,7.4,89.0,107.0,20.0,forefoot,354.0,75.0,123.0,105.0
SH0254,P254,34,M,196.8,66.4,rubberized_floor,basketball_shoes,1,12.26,Good,1704087390000,-0.51,0.21,10.41,0.027,0.319,0.113,2.86,2.93,2.92,3.55,2.66,3.26,195.0,4.3,638.0,0.49,1.51,1.1,155.0,0.1,7.9,7.0,8.0,91.0,125.0,15.0,forefoot,211.0,75.0,146.0,116.0
SH0255,P255,23,F,155.9,64.6,grass,basketball_shoes,1,16.3,Below Average,1704087420000,1.27,-0.51,8.78,-0.162,0.48,-0.658,4.09,4.32,3.94,3.96,2.56,2.45,130.0,4.4,512.0,0.29,1.66,1.28,194.0,0.1,7.3,8.9,6.5,88.0,93.0,20.0,heel,258.0,71.0,129.0,108.0
SH0256,P256,19,F,150.0,82.3,synthetic_track,cross_trainers,0,16.0,Below Average,1704087450000,2.43,1.31,10.22,0.623,-0.032,0.378,4.2,4.29,3.84,3.67,2.9,2.5,166.0,3.8,596.0,0.23,1.82,1.13,243.0,0.19,8.6,7.3,7.9,67.0,138.0,17.0,midfoot,223.0,67.0,123.0,100.0
SH0257,P257,15,M,191.2,94.7,rubberized_floor,cross_trainers,0,12.06,Good,1704087480000,-0.02,-0.99,8.75,0.692,0.105,0.383,3.35,3.17,3.19,2.36,3.19,3.32,150.0,3.4,636.0,0.24,1.42,1.31,180.0,0.13,6.1,6.3,7.1,88.0,114.0,8.0,forefoot,222.0,62.0,129.0,100.0
SH0258,P258,29,F,161.9,67.7,gym_floor,basketball_shoes,0,15.38,Below Average,1704087510000,-2.5,1.36,10.13,0.646,-0.484,1.041,4.01,3.89,4.12,3.36,2.92,2.6,149.0,3.9,629.0,0.34,1.95,0.85,237.0,0.37,8.0,8.7,9.2,93.0,84.0,15.0,forefoot,199.0,71.0,147.0,115.0
SH0259,P259,25,M,182.0,99.1,synthetic_track,cross_trainers,0,12.93,Average,1704087540000,2.14,-0.29,10.28,-0.186,0.237,-0.058,2.86,3.03,3.23,3.82,2.63,3.09,181.0,3.5,610.0,0.45,1.76,1.22,218.0,0.12,8.0,9.7,8.0,71.0,83.0,19.0,forefoot,191.0,75.0,129.0,109.0
SH0260,P260,34,M,172.8,75.9,synthetic_track,basketball_shoes,0,13.1,Average,1704087570000,-1.85,-0.14,9.51,0.3,0.133,0.746,3.12,3.29,3.36,3.33,2.5,3.05,163.0,4.1,426.0,0.27,1.43,1.12,291.0,0.3,6.1,6.3,7.7,63.0,131.0,20.0,midfoot,346.0,68.0,117.0,92.0
SH0261,P261,28,F,174.5,80.7,rubberized_floor,turf_shoes,0,14.05,Below Average,1704087600000,2.01,1.13,10.1,0.709,-0.402,-0.564,3.3,3.64,3.33,3.78,2.84,2.85,144.0,3.4,580.0,0.27,1.77,1.02,205.0,0.28,8.2,6.4,9.2,85.0,93.0,23.0,midfoot,229.0,64.0,141.0,111.0
SH0262,P262,21,M,175.7,62.6,grass,turf_shoes,0,11.78,Good,1704087630000,1.55,0.59,10.03,-0.094,0.216,-0.272,3.07,2.96,3.11,2.64,3.0,3.4,186.0,3.1,598.0,0.6,1.8,1.32,202.0,0.36,8.6,9.4,6.4,67.0,85.0,21.0,midfoot,149.0,77.0,145.0,119.0
SH0263,P263,33,F,159.9,70.1,rubberized_floor,basketball_shoes,0,15.68,Below Average,1704087660000,0.03,0.09,10.11,0.466,0.081,0.674,4.1,3.86,4.15,3.56,2.24,2.55,141.0,3.0,456.0,0.25,1.66,1.03,190.0,0.21,8.1,9.5,9.6,79.0,137.0,25.0,forefoot,318.0,68.0,108.0,93.0
SH0264,P264,27,M,167.9,59.2,synthetic_track,cross_trainers,0,10.3,Excellent,1704087690000,-2.39,0.56,9.09,0.096,-0.199,-0.799,2.36,2.65,2.68,2.61,3.74,3.88,147.0,3.7,484.0,0.14,1.68,0.96,232.0,0.25,8.1,8.1,9.7,74.0,137.0,21.0,forefoot,353.0,69.0,142.0,110.0
SH0265,P265,21,M,179.8,59.0,grass,basketball_shoes,0,12.83,Average,1704087720000,-1.02,0.68,8.96,-0.799,0.215,-0.789,3.57,3.32,3.12,2.82,2.63,3.12,159.0,3.7,442.0,0.41,1.32,0.91,281.0,0.28,9.4,7.0,7.5,72.0,121.0,8.0,midfoot,246.0,76.0,154.0,121.0
SH0266,P266,15,F,154.6,58.3,concrete,cross_trainers,0,14.67,Below Average,1704087750000,-0.7,-0.1,9.88,0.614,-0.293,1.004,3.33,3.54,3.73,4.06,3.07,2.73,169.0,4.3,581.0,0.41,1.2,0.91,157.0,0.17,6.4,7.5,8.0,66.0,119.0,16.0,forefoot,228.0,79.0,128.0,102.0
SH0267,P267,32,M,178.2,89.8,rubberized_floor,spikes,0,12.51,Average,1704087780000,-0.18,-1.23,9.72,-0.339,-0.34,0.107,3.1,3.24,3.14,3.03,3.24,3.2,164.0,3.5,498.0,0.41,1.95,1.2,164.0,0.4,6.3,7.8,9.6,93.0,85.0,24.0,forefoot,353.0,68.0,126.0,98.0
SH0268,P268,26,M,180.2,55.0,concrete,running_shoes,0,12.03,Good,1704087810000,-0.77,-0.46,9.44,-0.265,-0.393,-0.85,3.18,3.07,3.08,2.7,2.7,3.32,190.0,3.2,611.0,0.35,1.76,1.15,230.0,0.18,9.3,6.3,8.8,72.0,117.0,23.0,forefoot,347.0,68.0,112.0,96.0
SH0269,P269,29,M,173.9,63.7,grass,spikes,0,12.8,Average,1704087840000,1.21,-1.35,8.94,-0.361,0.048,-0.853,3.09,3.35,3.2,3.16,2.67,3.13,148.0,4.1,592.0,0.3,1.41,1.03,210.0,0.06,8.0,7.4,7.0,87.0,90.0,9.0,midfoot,332.0,76.0,136.0,117.0
SH0270,P270,27,F,155.5,66.9,grass,running_shoes,0,16.0,Below Average,1704087870000,-1.27,1.21,8.71,0.772,0.36,0.451,3.89,4.15,3.93,4.02,2.94,2.5,143.0,3.9,478.0,0.54,1.24,1.03,250.0,0.15,6.6,8.8,6.4,67.0,136.0,8.0,forefoot,106.0,70.0,130.0,108.0
SH0271,P271,25,M,172.4,58.5,rubberized_floor,turf_shoes,0,11.14,Very Good,1704087900000,0.15,0.27,8.9,-0.34,-0.338,-0.602,2.88,2.93,2.81,2.52,3.2,3.59,155.0,3.4,578.0,0.12,1.44,1.25,267.0,0.21,6.2,6.9,8.8,84.0,103.0,11.0,forefoot,274.0,79.0,122.0,97.0
SH0272,P272,26,M,180.4,71.2,concrete,running_shoes,0,11.3,Very Good,1704087930000,-2.38,-0.56,10.14,0.086,-0.049,-0.515,2.75,2.98,2.79,2.77,3.25,3.54,173.0,3.3,628.0,0.47,1.63,1.29,270.0,0.17,9.1,6.9,8.9,66.0,80.0,16.0,forefoot,266.0,64.0,138.0,118.0
SH0273,P273,33,F,161.2,45.0,rubberized_floor,running_shoes,0,13.45,Average,1704087960000,-1.14,-0.99,9.94,0.432,-0.038,0.514,3.11,3.16,3.17,4.01,3.25,2.97,166.0,3.7,566.0,0.49,1.8,1.16,246.0,0.05,8.7,6.1,7.2,61.0,131.0,20.0,forefoot,306.0,76.0,128.0,112.0
SH0274,P274,24,F,162.0,56.0,gym_floor,basketball_shoes,0,13.67,Below Average,1704087990000,-1.97,-0.02,10.04,-0.445,-0.231,-0.617,3.8,3.66,3.63,2.58,3.5,2.93,137.0,4.0,531.0,0.48,1.99,0.91,213.0,0.33,9.1,7.4,6.7,76.0,112.0,25.0,forefoot,285.0,67.0,123.0,94.0
SH0275,P275,17,M,175.6,78.5,rubberized_floor,spikes,0,11.43,Very Good,1704088020000,-1.44,0.01,8.54,-0.395,0.017,-1.164,2.8,3.05,2.99,2.59,3.17,3.5,152.0,3.2,632.0,0.44,1.65,1.27,230.0,0.09,9.0,8.5,9.9,89.0,95.0,21.0,heel,309.0,72.0,130.0,108.0
SH0276,P276,26,F,163.0,71.0,gym_floor,cross_trainers,0,13.86,Below Average,1704088050000,1.26,0.54,8.9,-0.01,0.292,-0.058,3.18,3.74,3.25,3.68,2.93,2.89,126.0,4.3,642.0,0.22,1.78,1.29,257.0,0.09,9.4,10.0,7.2,74.0,131.0,14.0,forefoot,251.0,73.0,152.0,136.0
SH0277,P277,23,M,183.6,72.6,gym_floor,spikes,0,10.27,Excellent,1704088080000,0.3,-0.5,8.81,0.558,0.022,1.04,2.82,2.43,2.48,2.54,4.37,3.89,171.0,3.4,465.0,0.2,1.68,0.85,233.0,0.2,6.2,7.5,8.9,80.0,102.0,24.0,forefoot,302.0,78.0,150.0,131.0
SH0278,P278,17,M,174.7,82.6,concrete,turf_shoes,0,12.27,Good,1704088110000,-2.08,0.94,9.94,0.367,-0.4,0.523,2.81,3.1,3.27,3.09,3.49,3.26,163.0,4.3,459.0,0.1,1.33,0.82,241.0,0.21,7.3,9.6,6.4,93.0,87.0,12.0,forefoot,230.0,66.0,140.0,113.0
SH0279,P279,33,F,166.5,81.1,rubberized_floor,spikes,0,14.77,Below Average,1704088140000,2.5,1.01,10.29,0.517,-0.397,-0.654,4.02,3.84,3.95,2.95,2.17,2.71,128.0,3.0,495.0,0.43,1.43,0.95,216.0,0.23,7.3,7.1,8.0,84.0,103.0,12.0,forefoot,205.0,75.0,145.0,117.0
SH0280,P280,25,M,168.0,75.7,concrete,running_shoes,0,12.54,Average,1704088170000,0.35,-0.05,9.6,-0.013,0.065,0.517,3.48,2.91,3.11,3.04,2.69,3.19,151.0,3.7,541.0,0.52,1.96,1.18,286.0,0.35,7.4,8.4,7.2,80.0,99.0,13.0,forefoot,345.0,69.0,122.0,98.0
SH0281,P281,24,F,160.7,59.6,rubberized_floor,running_shoes,0,13.22,Average,1704088200000,-1.41,-0.38,9.17,-0.518,0.107,-0.056,3.61,3.43,3.53,2.65,3.47,3.03,143.0,3.8,575.0,0.11,1.21,0.94,154.0,0.37,6.4,7.0,6.7,60.0,124.0,11.0,heel,368.0,73.0,140.0,125.0
SH0282,P282,17,F,166.0,61.0,concrete,turf_shoes,0,13.38,Average,1704088230000,-0.78,1.18,9.08,0.1,-0.4,1.013,3.13,3.08,3.48,3.69,2.56,2.99,179.0,4.2,571.0,0.33,1.92,1.05,266.0,0.23,8.1,7.9,7.8,71.0,95.0,9.0,forefoot,169.0,63.0,129.0,100.0
SH0283,P283,26,F,162.2,74.5,synthetic_track,running_shoes,0,14.86,Below Average,1704088260000,-0.98,1.45,9.05,-0.476,-0.058,-1.064,3.3,3.78,3.84,3.94,3.21,2.69,148.0,4.1,587.0,0.21,1.38,0.9,207.0,0.26,7.5,9.4,9.3,85.0,94.0,11.0,heel,285.0,80.0,133.0,104.0
SH0284,P284,31,F,170.1,50.7,concrete,spikes,0,12.99,Average,1704088290000,0.06,-0.54,8.84,-0.379,-0.464,0.491,2.93,3.38,3.0,3.68,3.07,3.08,139.0,4.3,423.0,0.46,1.26,1.29,252.0,0.4,8.0,9.4,8.4,68.0,117.0,16.0,forefoot,104.0,62.0,128.0,102.0
SH0285,P285,16,F,158.6,58.6,rubberized_floor,cross_trainers,0,13.7,Below Average,1704088320000,-0.51,0.37,10.06,0.454,0.019,0.859,3.67,3.38,3.28,3.38,2.79,2.92,138.0,4.4,483.0,0.52,1.64,1.17,169.0,0.2,7.9,7.6,9.7,72.0,110.0,16.0,forefoot,142.0,70.0,120.0,101.0
SH0286,P286,30,M,174.5,93.1,synthetic_track,turf_shoes,0,12.69,Average,1704088350000,1.14,0.54,9.44,-0.179,-0.124,0.336,3.27,3.07,2.93,3.42,3.14,3.15,193.0,3.3,554.0,0.56,1.77,1.26,176.0,0.16,6.8,6.9,8.1,71.0,90.0,11.0,midfoot,150.0,61.0,126.0,91.0
SH0287,P287,25,M,168.8,65.9,rubberized_floor,cross_trainers,0,11.66,Good,1704088380000,1.42,0.37,9.13,0.067,-0.409,0.429,3.06,3.05,2.77,2.78,3.74,3.43,156.0,3.8,524.0,0.27,1.89,1.08,200.0,0.34,9.2,8.3,9.1,70.0,113.0,12.0,forefoot,195.0,65.0,144.0,126.0
SH0288,P288,29,F,163.0,64.6,rubberized_floor,spikes,0,13.08,Average,1704088410000,-2.44,0.26,9.5,0.597,-0.416,0.436,3.25,3.22,3.17,3.45,3.28,3.06,150.0,3.6,610.0,0.32,1.98,0.85,275.0,0.18,9.7,7.9,8.5,75.0,105.0,14.0,heel,349.0,62.0,107.0,83.0
SH0289,P289,26,F,163.7,49.9,grass,turf_shoes,0,14.28,Below Average,1704088440000,-2.46,-0.55,9.85,-0.026,0.478,0.898,3.25,3.86,3.43,3.74,2.64,2.8,165.0,4.4,628.0,0.22,1.93,0.99,158.0,0.3,9.9,7.1,9.8,79.0,109.0,12.0,midfoot,157.0,71.0,121.0,87.0
SH0290,P290,25,M,165.7,64.1,grass,running_shoes,0,12.85,Average,1704088470000,-1.34,-0.03,10.24,0.339,0.08,-0.986,3.1,3.4,3.02,3.34,3.35,3.11,174.0,3.2,502.0,0.45,1.92,1.06,223.0,0.25,8.0,9.7,8.1,84.0,86.0,22.0,forefoot,122.0,76.0,131.0,114.0
SH0291,P291,32,F,168.1,61.1,grass,basketball_shoes,0,16.0,Below Average,1704088500000,-0.67,0.3,9.71,-0.216,0.404,0.008,4.3,4.18,4.18,3.34,2.46,2.5,164.0,3.4,573.0,0.53,1.91,0.92,284.0,0.36,6.5,9.9,9.5,79.0,119.0,17.0,forefoot,324.0,70.0,136.0,111.0
SH0292,P292,34,M,171.5,54.4,grass,running_shoes,0,13.85,Below Average,1704088530000,-1.11,-1.02,8.89,0.757,-0.347,-0.554,3.25,3.35,3.71,3.56,2.99,2.89,190.0,4.0,593.0,0.14,1.53,1.14,199.0,0.32,6.7,7.8,8.4,89.0,99.0,22.0,forefoot,351.0,63.0,106.0,79.0
SH0293,P293,19,F,168.3,57.4,grass,turf_shoes,0,13.74,Below Average,1704088560000,0.0,-0.13,9.19,0.31,0.26,0.847,3.41,3.71,3.56,3.06,3.46,2.91,177.0,4.3,557.0,0.55,1.85,1.08,229.0,0.23,7.0,7.5,6.1,78.0,138.0,23.0,forefoot,211.0,68.0,123.0,92.0
SH0294,P294,17,F,155.8,84.0,rubberized_floor,turf_shoes,0,16.0,Below Average,1704088590000,1.77,0.92,8.76,0.342,-0.065,-0.493,4.26,3.84,3.71,4.19,2.05,2.5,172.0,3.0,524.0,0.57,1.7,0.99,171.0,0.26,7.0,6.0,6.9,66.0,112.0,18.0,forefoot,111.0,61.0,102.0,72.0
SH0295,P295,25,M,183.2,62.4,rubberized_floor,running_shoes,0,10.92,Very Good,1704088620000,0.06,0.64,9.05,-0.605,0.056,-0.415,2.89,2.82,2.75,2.47,3.58,3.66,181.0,4.3,588.0,0.32,1.53,1.26,155.0,0.31,8.3,6.3,9.6,87.0,137.0,9.0,forefoot,228.0,67.0,110.0,84.0
SH0296,P296,28,F,150.0,48.4,synthetic_track,basketball_shoes,0,13.64,Below Average,1704088650000,0.56,0.71,10.03,0.649,-0.091,1.087,3.47,3.46,3.55,3.17,3.36,2.93,153.0,3.2,462.0,0.53,1.45,1.38,185.0,0.07,6.5,9.8,6.4,85.0,131.0,15.0,heel,277.0,73.0,146.0,125.0
SH0297,P297,21,F,167.1,55.4,concrete,cross_trainers,0,13.02,Average,1704088680000,2.45,-0.08,9.61,0.048,-0.178,-1.02,3.18,3.13,3.44,3.27,3.56,3.07,164.0,3.8,593.0,0.4,1.27,1.08,287.0,0.19,6.8,6.8,8.6,67.0,119.0,23.0,midfoot,361.0,71.0,141.0,123.0
SH0298,P298,19,M,184.7,56.0,synthetic_track,basketball_shoes,0,11.12,Very Good,1704088710000,0.06,1.29,10.25,-0.585,-0.327,-0.342,3.01,2.79,2.65,2.67,3.3,3.6,171.0,3.8,692.0,0.47,1.38,1.02,263.0,0.31,7.5,9.8,7.8,69.0,114.0,23.0,forefoot,384.0,64.0,107.0,74.0
SH0299,P299,18,M,178.5,72.2,grass,spikes,0,12.4,Good,1704088740000,0.35,-0.35,10.37,-0.109,0.039,-0.129,3.17,2.92,2.85,3.46,3.31,3.23,155.0,4.1,531.0,0.15,1.93,0.93,266.0,0.36,6.8,6.7,6.1,81.0,91.0,13.0,forefoot,386.0,65.0,134.0,110.0
SH0300,P300,27,M,177.5,65.2,gym_floor,cross_trainers,0,10.88,Very Good,1704088770000,-2.14,0.9,8.99,0.361,-0.432,1.092,2.87,2.66,2.58,2.77,3.22,3.67,167.0,3.2,692.0,0.59,1.28,1.15,167.0,0.24,8.5,8.2,8.6,70.0,136.0,21.0,heel,111.0,66.0,114.0,98.0
SH0301,P301,34,M,181.2,56.5,concrete,running_shoes,0,12.67,Average,1704088800000,1.94,0.58,9.29,-0.204,-0.044,-0.775,3.07,3.02,3.31,3.28,3.33,3.16,169.0,3.3,623.0,0.2,1.33,1.27,237.0,0.36,6.9,8.1,7.8,90.0,107.0,8.0,forefoot,282.0,71.0,137.0,119.0
SH0302,P302,22,F,151.0,47.1,rubberized_floor,basketball_shoes,0,13.31,Average,1704088830000,1.25,-0.48,9.92,-0.723,-0.092,0.492,3.31,3.38,3.31,3.3,2.68,3.01,163.0,3.7,596.0,0.2,1.37,0.8,180.0,0.39,7.2,9.0,9.2,78.0,135.0,20.0,midfoot,126.0,64.0,105.0,75.0
SH0303,P303,29,M,184.2,62.5,rubberized_floor,cross_trainers,0,11.81,Good,1704088860000,-1.85,-0.98,9.18,-0.146,-0.151,0.633,3.3,2.76,2.85,2.9,2.84,3.39,162.0,4.2,575.0,0.4,1.72,1.25,237.0,0.36,6.5,9.3,8.8,85.0,92.0,15.0,forefoot,117.0,79.0,124.0,95.0
SH0304,P304,30,M,170.8,64.5,grass,spikes,0,12.54,Average,1704088890000,2.12,1.06,9.55,-0.434,-0.378,-0.328,3.25,3.12,3.31,2.86,2.88,3.19,168.0,4.3,667.0,0.25,1.3,1.31,158.0,0.23,8.3,9.6,9.8,73.0,118.0,21.0,forefoot,267.0,74.0,120.0,88.0
SH0305,P305,29,F,165.8,59.3,concrete,spikes,0,12.82,Average,1704088920000,0.03,-1.24,10.44,-0.738,0.254,0.06,3.52,3.1,3.18,3.02,2.96,3.12,155.0,3.2,494.0,0.57,1.5,0.85,254.0,0.07,7.5,8.4,8.1,70.0,129.0,9.0,midfoot,128.0,77.0,131.0,104.0
SH0306,P306,20,M,172.5,65.1,rubberized_floor,cross_trainers,0,10.97,Very Good,1704088950000,-0.94,0.04,9.68,0.464,0.156,0.261,2.42,2.81,2.61,3.13,3.52,3.65,193.0,4.3,545.0,0.14,1.29,1.1,239.0,0.16,8.4,7.1,8.9,61.0,125.0,12.0,midfoot,226.0,72.0,146.0,114.0
SH0307,P307,16,F,153.4,52.6,grass,spikes,0,14.17,Below Average,1704088980000,-1.54,1.21,8.9,-0.759,-0.48,0.294,3.17,3.79,3.39,3.83,3.01,2.82,180.0,3.3,506.0,0.49,1.38,0.85,255.0,0.24,9.5,9.4,7.6,90.0,99.0,17.0,forefoot,206.0,78.0,124.0,106.0
SH0308,P308,31,M,186.7,92.1,grass,running_shoes,0,15.03,Below Average,1704089010000,-1.53,-0.33,10.39,-0.405,0.168,0.576,3.93,3.81,3.98,3.3,2.61,2.66,161.0,3.4,638.0,0.21,1.23,0.83,242.0,0.35,9.5,8.7,8.6,77.0,132.0,14.0,heel,310.0,65.0,128.0,102.0
SH0309,P309,23,F,163.8,47.5,rubberized_floor,cross_trainers,0,12.52,Average,1704089040000,2.24,0.42,10.25,0.282,-0.143,0.03,3.26,3.35,3.08,2.84,3.42,3.19,177.0,4.1,677.0,0.12,1.93,1.09,220.0,0.34,7.8,8.3,6.6,61.0,96.0,8.0,forefoot,318.0,76.0,154.0,127.0
SH0310,P310,17,M,173.9,73.0,concrete,basketball_shoes,0,12.85,Average,1704089070000,1.38,0.22,9.89,0.679,0.212,-0.316,2.85,3.03,3.29,3.69,3.38,3.11,188.0,4.5,425.0,0.27,1.68,1.36,163.0,0.35,6.7,8.9,9.0,88.0,82.0,10.0,forefoot,200.0,70.0,131.0,111.0
SH0311,P311,28,M,173.1,78.7,concrete,spikes,0,12.2,Good,1704089100000,0.16,-0.28,9.05,-0.59,0.319,1.191,3.35,3.08,3.02,2.75,3.06,3.28,179.0,4.4,564.0,0.5,1.23,1.0,274.0,0.31,7.9,7.3,8.8,95.0,96.0,23.0,midfoot,209.0,75.0,119.0,88.0
SH0312,P312,27,M,173.8,47.9,grass,cross_trainers,1,13.38,Average,1704089130000,0.71,-0.87,8.56,-0.106,0.07,0.904,3.11,3.27,3.42,3.58,3.5,2.99,141.0,4.1,608.0,0.52,1.52,1.07,199.0,0.29,9.4,9.1,7.2,80.0,90.0,13.0,midfoot,306.0,80.0,150.0,117.0
SH0313,P313,18,F,166.8,50.9,gym_floor,cross_trainers,0,12.42,Good,1704089160000,1.81,1.06,8.54,0.175,-0.132,-0.202,3.23,2.98,3.02,3.19,3.65,3.22,171.0,4.1,562.0,0.26,1.63,0.84,276.0,0.3,6.8,7.9,6.3,93.0,122.0,24.0,forefoot,280.0,80.0,145.0,130.0
SH0314,P314,30,M,171.6,75.8,concrete,turf_shoes,0,12.63,Average,1704089190000,1.48,0.25,9.84,0.784,-0.409,0.401,3.25,2.97,3.04,3.37,2.89,3.17,190.0,3.5,501.0,0.34,1.95,0.94,285.0,0.37,7.6,8.4,9.0,87.0,94.0,8.0,forefoot,142.0,74.0,141.0,125.0
SH0315,P315,17,M,171.0,78.0,grass,cross_trainers,0,14.66,Below Average,1704089220000,-0.35,-0.18,8.63,-0.158,0.265,0.996,3.61,3.84,3.73,3.48,2.63,2.73,147.0,3.9,592.0,0.19,1.61,1.12,185.0,0.36,9.5,7.8,7.1,66.0,106.0,11.0,midfoot,242.0,67.0,121.0,89.0
SH0316,P316,32,F,156.7,75.4,synthetic_track,basketball_shoes,0,16.0,Below Average,1704089250000,1.99,1.21,9.16,0.724,-0.475,-0.296,3.94,4.15,4.25,3.66,2.9,2.5,162.0,3.3,483.0,0.57,1.41,0.89,171.0,0.16,6.4,8.3,6.5,70.0,116.0,22.0,midfoot,179.0,65.0,144.0,128.0
SH0317,P317,18,M,173.2,73.4,gym_floor,turf_shoes,0,11.5,Very Good,1704089280000,-0.3,0.62,9.68,-0.291,0.054,0.554,2.68,2.84,2.73,3.24,2.84,3.48,173.0,3.2,458.0,0.11,1.24,1.37,166.0,0.23,6.6,8.8,6.3,76.0,137.0,24.0,midfoot,281.0,69.0,123.0,89.0
SH0318,P318,34,F,165.0,72.2,synthetic_track,running_shoes,0,15.66,Below Average,1704089310000,-1.34,-1.36,10.39,-0.298,-0.057,-0.925,4.13,3.71,3.96,3.87,2.9,2.55,142.0,3.3,536.0,0.53,1.52,1.04,204.0,0.38,6.7,7.5,9.5,93.0,89.0,11.0,midfoot,218.0,60.0,111.0,84.0
SH0319,P319,30,M,172.1,73.6,rubberized_floor,spikes,0,11.78,Good,1704089340000,1.35,-0.21,10.02,-0.205,-0.256,0.55,2.76,3.08,2.91,3.02,3.29,3.4,195.0,3.7,698.0,0.47,1.57,0.94,241.0,0.29,6.8,7.7,9.0,70.0,109.0,9.0,midfoot,397.0,68.0,109.0,90.0
SH0320,P320,19,F,172.5,69.7,concrete,running_shoes,0,14.47,Below Average,1704089370000,1.44,-0.74,10.03,0.301,-0.177,0.109,3.69,3.44,3.66,3.67,2.37,2.77,153.0,3.6,624.0,0.16,1.53,0.84,289.0,0.18,6.4,7.7,7.2,87.0,112.0,20.0,forefoot,383.0,71.0,144.0,122.0
SH0321,P321,22,F,164.1,51.2,gym_floor,running_shoes,0,12.9,Average,1704089400000,-1.54,0.38,10.46,-0.057,0.317,0.019,3.26,3.08,3.2,3.36,3.1,3.1,152.0,4.2,663.0,0.55,1.53,0.81,154.0,0.19,9.4,6.7,8.5,95.0,86.0,15.0,forefoot,372.0,77.0,127.0,110.0
SH0322,P322,26,M,173.1,52.2,rubberized_floor,spikes,0,11.01,Very Good,1704089430000,0.86,-1.4,8.77,0.298,-0.288,0.858,2.54,2.8,2.85,2.81,2.99,3.63,159.0,4.2,594.0,0.4,1.51,1.13,202.0,0.19,8.3,6.7,7.6,87.0,109.0,24.0,forefoot,225.0,76.0,138.0,112.0
SH0323,P323,31,M,174.0,63.1,concrete,turf_shoes,0,11.97,Good,1704089460000,0.88,-0.48,9.59,0.545,0.383,-0.815,2.91,3.11,3.05,2.9,3.13,3.34,163.0,3.2,529.0,0.45,1.88,1.21,236.0,0.31,6.1,6.9,6.3,64.0,130.0,17.0,midfoot,391.0,62.0,138.0,120.0
SH0324,P324,27,F,159.6,68.6,grass,running_shoes,0,16.0,Below Average,1704089490000,2.03,0.02,9.69,0.333,0.333,-0.908,4.43,4.03,4.29,3.25,2.81,2.5,135.0,4.1,533.0,0.51,1.74,1.16,168.0,0.35,8.3,9.4,9.3,74.0,95.0,23.0,forefoot,343.0,65.0,105.0,81.0
SH0325,P325,17,F,163.7,54.1,gym_floor,running_shoes,0,13.29,Average,1704089520000,-2.06,-0.64,10.06,-0.557,0.147,1.002,3.49,3.4,3.41,2.99,3.23,3.01,148.0,3.1,558.0,0.49,1.74,1.08,281.0,0.33,9.6,7.3,7.2,78.0,88.0,12.0,midfoot,216.0,77.0,155.0,124.0
SH0326,P326,25,M,161.4,85.1,synthetic_track,basketball_shoes,0,13.92,Below Average,1704089550000,-0.74,-1.0,8.57,-0.183,0.404,-0.626,3.09,3.71,3.28,3.83,2.54,2.87,173.0,3.4,563.0,0.13,1.24,0.87,201.0,0.2,6.3,9.0,7.9,93.0,135.0,20.0,midfoot,196.0,68.0,132.0,105.0
SH0327,P327,20,F,150.0,53.4,concrete,cross_trainers,0,14.18,Below Average,1704089580000,-1.15,-1.2,9.2,-0.155,-0.483,0.756,3.64,3.8,3.83,2.92,2.66,2.82,145.0,3.4,515.0,0.53,2.0,1.18,236.0,0.34,9.2,9.1,7.4,84.0,81.0,14.0,forefoot,170.0,78.0,120.0,100.0
SH0328,P328,17,F,158.7,67.4,synthetic_track,basketball_shoes,0,14.38,Below Average,1704089610000,0.17,-0.85,8.83,-0.421,0.003,-0.549,3.73,3.47,3.64,3.55,3.28,2.78,167.0,4.4,498.0,0.23,1.47,1.08,170.0,0.22,9.7,9.6,6.4,64.0,101.0,11.0,midfoot,385.0,80.0,135.0,108.0
SH0329,P329,21,M,168.5,90.1,grass,basketball_shoes,0,15.56,Below Average,1704089640000,-2.12,0.59,9.01,-0.302,-0.379,0.875,4.12,3.66,3.64,4.14,2.56,2.57,183.0,3.3,518.0,0.25,1.58,1.07,257.0,0.15,8.8,8.5,8.6,71.0,106.0,13.0,heel,344.0,63.0,104.0,88.0
SH0330,P330,32,F,152.8,53.4,grass,running_shoes,0,15.89,Below Average,1704089670000,0.17,1.07,9.97,-0.455,-0.101,0.019,3.6,4.01,3.81,4.46,2.83,2.52,149.0,4.0,669.0,0.23,1.24,0.81,186.0,0.13,6.1,6.0,6.4,95.0,98.0,10.0,forefoot,357.0,74.0,125.0,99.0
SH0331,P331,21,F,169.0,67.4,grass,running_shoes,0,15.38,Below Average,1704089700000,1.85,0.24,9.36,0.227,0.318,-1.186,3.82,3.62,3.78,4.16,3.11,2.6,135.0,3.5,519.0,0.29,1.99,1.4,155.0,0.09,6.5,8.9,6.2,94.0,136.0,11.0,forefoot,172.0,70.0,133.0,114.0
SH0332,P332,25,F,164.6,50.0,synthetic_track,basketball_shoes,0,13.66,Below Average,1704089730000,2.11,0.47,9.37,0.464,0.318,-0.503,3.66,3.56,3.65,2.79,2.74,2.93,154.0,3.2,500.0,0.39,1.82,0.86,283.0,0.28,6.7,6.0,8.4,94.0,84.0,23.0,midfoot,194.0,79.0,131.0,98.0
SH0333,P333,27,F,164.3,62.8,concrete,basketball_shoes,0,14.29,Below Average,1704089760000,0.16,-0.43,10.08,0.413,0.411,-1.164,3.16,3.65,3.65,3.84,3.15,2.8,179.0,3.6,542.0,0.27,1.7,1.3,245.0,0.35,9.7,9.2,7.7,77.0,93.0,11.0,forefoot,315.0,62.0,112.0,91.0
SH0334,P334,30,F,163.2,45.0,grass,spikes,0,14.76,Below Average,1704089790000,0.87,-1.33,8.75,-0.001,-0.163,-0.49,4.11,3.8,3.64,3.21,2.24,2.71,164.0,4.1,522.0,0.49,1.58,1.06,180.0,0.37,6.0,9.7,8.4,92.0,139.0,23.0,heel,173.0,77.0,150.0,130.0
SH0335,P335,17,F,167.0,54.1,synthetic_track,turf_shoes,0,12.02,Good,1704089820000,0.95,0.2,8.65,-0.54,-0.112,-0.755,2.74,2.88,3.18,3.23,3.72,3.33,176.0,4.2,436.0,0.27,1.42,1.13,157.0,0.29,8.9,10.0,6.5,89.0,131.0,20.0,heel,253.0,78.0,157.0,125.0
SH0336,P336,20,F,160.5,48.2,grass,running_shoes,0,14.6,Below Average,1704089850000,0.24,-0.14,10.26,-0.64,-0.242,0.604,3.96,3.62,3.89,3.12,2.3,2.74,151.0,3.4,486.0,0.17,1.2,1.12,191.0,0.11,6.4,7.6,8.4,87.0,137.0,10.0,forefoot,388.0,61.0,140.0,125.0
SH0337,P337,24,F,159.3,65.4,concrete,spikes,0,13.44,Average,1704089880000,0.77,-1.26,8.98,0.438,0.029,1.027,3.22,3.57,3.55,3.1,2.89,2.98,137.0,3.9,707.0,0.14,1.87,0.9,278.0,0.39,6.3,7.6,8.3,75.0,84.0,21.0,forefoot,234.0,66.0,126.0,105.0
SH0338,P338,20,F,164.9,60.7,grass,turf_shoes,0,14.61,Below Average,1704089910000,1.88,0.13,8.98,0.562,0.057,-0.704,3.3,3.59,3.93,3.79,2.87,2.74,169.0,3.2,598.0,0.24,1.46,1.19,272.0,0.2,9.0,9.0,8.0,64.0,114.0,24.0,midfoot,274.0,73.0,150.0,127.0
SH0339,P339,26,F,159.2,66.3,grass,running_shoes,0,15.55,Below Average,1704089940000,-1.75,1.37,9.31,0.601,-0.311,0.115,3.62,3.62,3.76,4.55,2.08,2.57,160.0,3.8,553.0,0.41,1.64,0.96,242.0,0.12,7.0,6.5,9.4,66.0,132.0,21.0,midfoot,222.0,65.0,144.0,113.0
SH0340,P340,27,F,154.9,66.2,rubberized_floor,cross_trainers,0,14.34,Below Average,1704089970000,1.29,-0.61,9.35,-0.502,-0.389,0.535,3.85,3.75,3.73,3.01,2.53,2.79,144.0,3.7,596.0,0.4,1.98,1.0,251.0,0.21,9.7,7.1,10.0,81.0,96.0,13.0,forefoot,134.0,67.0,137.0,110.0
SH0341,P341,19,F,165.3,59.0,synthetic_track,cross_trainers,0,12.4,Good,1704090000000,-0.13,0.45,8.56,-0.776,-0.371,-0.596,2.95,2.86,2.89,3.7,3.14,3.23,147.0,3.2,537.0,0.29,1.7,1.13,279.0,0.31,6.9,7.4,8.5,79.0,102.0,14.0,midfoot,112.0,80.0,146.0,118.0
SH0342,P342,26,F,165.6,59.0,concrete,spikes,0,12.61,Average,1704090030000,-0.08,-1.18,9.06,0.625,0.05,-0.208,3.1,3.2,3.02,3.29,2.63,3.17,177.0,3.9,618.0,0.26,1.56,1.28,197.0,0.33,6.6,7.2,8.7,65.0,126.0,9.0,forefoot,369.0,72.0,126.0,106.0
SH0343,P343,19,F,163.3,82.0,grass,basketball_shoes,0,16.0,Below Average,1704090060000,-0.04,0.55,8.7,-0.275,-0.425,-1.024,3.6,4.03,3.85,4.52,2.2,2.5,159.0,4.5,561.0,0.16,1.37,1.08,200.0,0.4,9.9,9.1,9.6,64.0,83.0,23.0,heel,127.0,62.0,104.0,87.0
SH0344,P344,17,M,191.3,83.5,rubberized_floor,basketball_shoes,0,12.3,Good,1704090090000,1.38,0.11,10.09,0.153,-0.185,0.147,2.78,3.21,3.01,3.3,3.3,3.25,142.0,3.5,672.0,0.41,1.3,1.35,199.0,0.19,6.3,9.7,8.8,86.0,116.0,19.0,forefoot,246.0,80.0,128.0,105.0
SH0345,P345,23,M,182.9,60.7,synthetic_track,running_shoes,0,10.85,Very Good,1704090120000,-2.09,-1.47,9.35,-0.143,0.488,-0.072,2.64,2.91,2.75,2.56,3.33,3.69,161.0,3.9,560.0,0.56,1.42,1.1,242.0,0.29,9.8,6.7,8.9,72.0,99.0,20.0,forefoot,226.0,64.0,104.0,70.0
SH0346,P346,30,F,168.9,62.5,rubberized_floor,running_shoes,0,13.57,Below Average,1704090150000,-1.8,0.26,8.9,0.464,0.284,-0.93,3.77,3.31,3.18,3.32,3.43,2.95,135.0,3.8,634.0,0.5,1.32,1.2,220.0,0.33,7.3,7.4,8.6,65.0,127.0,9.0,forefoot,297.0,77.0,127.0,106.0
SH0347,P347,23,F,151.8,59.9,gym_floor,spikes,0,13.23,Average,1704090180000,-1.77,-0.11,10.05,-0.26,0.133,-1.079,3.58,3.07,3.25,3.33,3.15,3.02,145.0,3.4,503.0,0.56,1.8,0.84,197.0,0.25,8.9,8.1,9.6,78.0,109.0,16.0,forefoot,327.0,69.0,147.0,127.0
SH0348,P348,30,M,180.2,74.8,synthetic_track,cross_trainers,0,11.76,Good,1704090210000,0.82,1.11,10.15,-0.224,0.1,-0.825,2.78,3.17,2.74,3.07,3.45,3.4,143.0,3.3,539.0,0.59,1.98,1.19,171.0,0.09,9.5,6.9,9.9,64.0,114.0,21.0,forefoot,393.0,69.0,115.0,90.0
SH0349,P349,29,M,182.5,76.0,concrete,running_shoes,0,13.09,Average,1704090240000,-1.16,0.44,10.47,-0.722,0.387,0.149,3.07,3.45,3.33,3.24,2.75,3.06,195.0,3.3,544.0,0.16,1.2,1.1,282.0,0.32,10.0,8.8,7.2,61.0,129.0,13.0,forefoot,168.0,69.0,126.0,106.0
SH0350,P350,25,F,154.9,63.2,synthetic_track,spikes,0,12.9,Average,1704090270000,2.45,0.83,9.09,-0.408,-0.282,-0.872,3.09,3.32,3.15,3.34,3.16,3.1,137.0,3.6,585.0,0.24,1.27,1.3,261.0,0.12,9.4,6.9,6.3,74.0,84.0,12.0,midfoot,341.0,64.0,118.0,100.0
SH0351,P351,24,M,179.4,94.6,gym_floor,basketball_shoes,0,13.66,Below Average,1704090300000,1.53,-1.45,8.87,0.248,-0.124,1.158,3.82,3.23,3.42,3.19,3.12,2.93,188.0,3.6,593.0,0.33,1.99,1.06,247.0,0.19,8.4,6.2,9.4,61.0,116.0,8.0,forefoot,285.0,64.0,111.0,83.0
SH0352,P352,18,M,178.8,68.3,gym_floor,cross_trainers,0,11.25,Very Good,1704090330000,-1.75,0.24,9.82,0.354,-0.245,-0.986,2.54,2.86,2.89,2.95,2.96,3.56,179.0,4.3,531.0,0.34,1.31,0.97,252.0,0.27,8.6,8.5,8.1,91.0,115.0,21.0,forefoot,303.0,78.0,133.0,103.0
SH0353,P353,15,F,160.7,59.0,rubberized_floor,spikes,0,12.45,Good,1704090360000,2.34,0.93,8.72,-0.605,0.094,-0.372,3.42,3.24,3.27,2.51,2.62,3.21,137.0,3.4,529.0,0.2,1.81,1.37,208.0,0.2,8.9,9.5,8.6,63.0,82.0,20.0,forefoot,266.0,71.0,122.0,98.0
SH0354,P354,32,M,176.8,45.0,rubberized_floor,running_shoes,0,11.81,Good,1704090390000,1.6,-0.15,9.71,0.633,0.366,0.937,3.06,2.76,2.78,3.22,3.07,3.39,149.0,3.9,486.0,0.47,1.89,1.36,204.0,0.37,6.8,7.2,7.0,80.0,124.0,16.0,forefoot,119.0,71.0,140.0,120.0
SH0355,P355,27,F,167.9,64.0,rubberized_floor,turf_shoes,0,13.26,Average,1704090420000,-0.48,0.54,10.03,0.787,-0.155,-0.214,3.06,3.2,3.29,3.71,2.61,3.02,141.0,3.4,576.0,0.47,1.21,1.12,250.0,0.28,9.2,7.1,8.4,76.0,101.0,22.0,midfoot,196.0,62.0,105.0,88.0
SH0356,P356,33,M,170.7,62.8,gym_floor,basketball_shoes,0,12.61,Average,1704090450000,-0.82,0.76,9.09,0.421,0.245,-0.61,3.47,3.22,2.99,2.93,3.46,3.17,181.0,3.6,535.0,0.4,1.79,1.11,173.0,0.34,9.3,8.9,8.5,93.0,88.0,16.0,forefoot,326.0,74.0,120.0,88.0
SH0357,P357,29,F,165.5,52.6,rubberized_floor,basketball_shoes,0,13.3,Average,1704090480000,-1.71,-1.0,9.82,0.081,-0.378,-0.93,2.99,3.54,3.54,3.23,2.49,3.01,163.0,4.4,559.0,0.51,1.86,1.14,244.0,0.11,7.2,6.9,7.3,69.0,108.0,12.0,forefoot,377.0,75.0,142.0,115.0
SH0358,P358,32,M,171.0,53.6,gym_floor,turf_shoes,0,11.5,Very Good,1704090510000,1.97,-0.75,8.68,0.4,-0.324,-0.307,3.11,2.82,3.05,2.53,2.82,3.48,153.0,3.5,428.0,0.18,1.7,1.05,244.0,0.38,8.5,9.0,8.2,70.0,102.0,20.0,midfoot,154.0,68.0,126.0,103.0
SH0359,P359,16,M,174.1,89.2,rubberized_floor,cross_trainers,0,13.31,Average,1704090540000,-1.82,-0.75,9.59,0.478,-0.464,1.162,3.69,3.28,3.57,2.77,2.95,3.01,189.0,3.7,502.0,0.44,1.55,1.14,273.0,0.34,6.2,8.8,6.2,68.0,99.0,16.0,forefoot,186.0,72.0,124.0,108.0
SH0360,P360,20,F,164.1,62.7,gym_floor,basketball_shoes,0,13.03,Average,1704090570000,-1.77,0.15,8.79,0.178,0.433,-0.73,3.0,3.19,3.22,3.62,3.39,3.07,142.0,4.0,408.0,0.56,1.52,0.92,218.0,0.1,7.1,9.4,8.3,76.0,97.0,24.0,midfoot,125.0,70.0,119.0,96.0
SH0361,P361,31,F,162.5,68.6,synthetic_track,basketball_shoes,0,14.74,Below Average,1704090600000,1.5,0.37,9.44,-0.452,-0.166,1.104,3.4,3.74,3.78,3.82,2.74,2.71,164.0,4.3,555.0,0.29,1.26,1.38,232.0,0.12,7.7,8.5,8.7,86.0,128.0,17.0,forefoot,134.0,62.0,115.0,94.0
SH0362,P362,32,F,157.6,60.3,gym_floor,basketball_shoes,0,15.64,Below Average,1704090630000,-1.66,1.44,9.25,-0.629,-0.006,0.898,4.24,4.14,3.97,3.3,2.95,2.56,157.0,4.2,451.0,0.49,1.91,1.13,277.0,0.22,9.9,10.0,6.5,74.0,117.0,9.0,forefoot,361.0,64.0,121.0,88.0
SH0363,P363,17,M,159.7,58.4,rubberized_floor,spikes,0,11.21,Very Good,1704090660000,0.66,0.9,9.4,0.508,0.034,-0.388,2.66,2.7,2.88,2.97,3.79,3.57,141.0,4.1,488.0,0.23,1.45,1.12,217.0,0.35,6.9,9.5,6.3,82.0,98.0,15.0,midfoot,392.0,78.0,132.0,97.0
SH0364,P364,34,F,150.0,53.2,rubberized_floor,running_shoes,0,14.62,Below Average,1704090690000,-2.2,-0.79,9.35,0.369,0.124,-0.63,3.84,3.4,3.38,4.0,2.74,2.74,134.0,4.1,681.0,0.19,1.61,0.86,292.0,0.05,9.7,7.4,9.6,76.0,81.0,23.0,forefoot,122.0,62.0,118.0,84.0
SH0365,P365,15,M,181.1,74.8,synthetic_track,spikes,0,10.85,Very Good,1704090720000,2.37,-1.45,10.4,-0.21,-0.49,0.454,2.8,2.82,2.57,2.66,4.4,3.69,198.0,4.0,534.0,0.52,1.63,1.05,293.0,0.29,9.9,8.3,9.5,79.0,80.0,9.0,forefoot,156.0,65.0,117.0,95.0
SH0366,P366,21,F,161.1,49.2,rubberized_floor,running_shoes,0,12.83,Average,1704090750000,-2.29,0.52,9.57,-0.089,0.134,0.786,3.32,3.04,3.24,3.23,3.03,3.12,179.0,3.8,658.0,0.56,1.53,1.4,191.0,0.06,8.3,6.2,8.3,89.0,97.0,22.0,forefoot,158.0,79.0,134.0,107.0
SH0367,P367,32,F,169.9,78.6,grass,turf_shoes,0,16.0,Below Average,1704090780000,-0.48,1.09,8.86,0.071,0.451,0.301,3.68,3.99,4.13,4.2,2.82,2.5,137.0,3.0,639.0,0.27,1.98,1.22,175.0,0.09,7.6,6.8,7.4,92.0,140.0,11.0,forefoot,199.0,69.0,117.0,96.0
SH0368,P368,27,F,166.2,64.2,concrete,running_shoes,0,13.95,Below Average,1704090810000,1.06,0.4,9.27,0.654,0.47,-0.783,3.51,3.39,3.51,3.54,2.55,2.87,178.0,3.3,504.0,0.43,1.23,0.84,176.0,0.25,8.2,6.4,6.1,85.0,92.0,19.0,forefoot,284.0,68.0,134.0,99.0
SH0369,P369,20,F,156.6,55.8,concrete,turf_shoes,0,13.11,Average,1704090840000,2.22,0.33,9.93,0.419,-0.237,-1.091,2.98,3.5,3.09,3.54,2.44,3.05,155.0,3.9,404.0,0.37,1.28,0.99,234.0,0.29,6.2,7.6,6.8,79.0,106.0,15.0,midfoot,166.0,75.0,145.0,122.0
SH0370,P370,25,M,170.5,66.7,grass,basketball_shoes,0,13.04,Average,1704090870000,-2.03,-1.36,8.72,-0.501,0.004,0.838,3.15,3.04,3.3,3.55,2.74,3.07,174.0,4.3,761.0,0.6,1.61,1.01,233.0,0.34,6.7,6.0,8.0,78.0,135.0,19.0,midfoot,144.0,77.0,144.0,126.0
SH0371,P371,26,F,161.7,53.0,gym_floor,basketball_shoes,0,14.05,Below Average,1704090900000,1.7,-0.42,9.35,0.771,0.284,0.953,3.32,3.26,3.47,4.0,2.78,2.85,171.0,3.0,484.0,0.44,1.95,0.94,185.0,0.09,8.8,9.9,9.8,65.0,122.0,20.0,midfoot,201.0,63.0,127.0,102.0
SH0372,P372,18,F,153.2,53.7,gym_floor,turf_shoes,0,13.37,Average,1704090930000,-0.81,-0.62,8.92,-0.375,-0.405,-0.368,3.52,3.39,3.59,2.88,2.44,2.99,126.0,4.1,541.0,0.58,1.89,0.9,257.0,0.16,7.3,6.7,8.4,79.0,121.0,15.0,midfoot,331.0,61.0,126.0,106.0
SH0373,P373,29,M,179.6,70.9,gym_floor,running_shoes,0,11.78,Good,1704090960000,-1.04,-0.8,9.57,-0.617,0.049,-1.197,2.66,2.95,2.81,3.36,3.16,3.4,172.0,4.3,584.0,0.41,1.71,1.12,196.0,0.21,9.7,9.7,8.1,67.0,118.0,17.0,forefoot,159.0,70.0,145.0,119.0
SH0374,P374,27,F,168.7,46.7,gym_floor,cross_trainers,0,13.53,Below Average,1704090990000,0.36,-0.16,9.82,-0.719,-0.007,-0.49,3.68,3.34,3.52,3.0,2.75,2.96,172.0,3.5,546.0,0.3,1.49,1.3,235.0,0.2,6.2,7.2,8.7,79.0,92.0,15.0,forefoot,370.0,65.0,140.0,112.0
SH0375,P375,33,F,159.3,65.1,gym_floor,cross_trainers,0,14.56,Below Average,1704091020000,-0.72,-0.38,9.14,0.194,-0.336,0.83,3.74,3.62,3.68,3.52,3.09,2.75,174.0,4.5,499.0,0.42,1.81,0.85,217.0,0.16,6.6,8.9,7.7,81.0,91.0,19.0,forefoot,119.0,67.0,116.0,83.0
SH0376,P376,31,F,152.1,47.1,concrete,basketball_shoes,0,15.51,Below Average,1704091050000,-2.27,-1.48,10.48,0.254,-0.135,-0.071,4.19,3.64,3.7,3.97,2.34,2.58,127.0,3.2,558.0,0.56,1.57,0.85,290.0,0.13,9.8,9.5,9.0,89.0,121.0,23.0,midfoot,204.0,75.0,126.0,104.0
SH0377,P377,17,F,163.3,45.0,rubberized_floor,turf_shoes,0,12.76,Average,1704091080000,-0.82,0.84,10.21,-0.103,-0.122,0.595,3.25,3.36,3.03,3.12,3.65,3.13,168.0,3.9,582.0,0.55,1.34,1.05,299.0,0.15,9.3,6.1,6.4,94.0,91.0,14.0,midfoot,297.0,72.0,133.0,101.0
SH0378,P378,21,F,161.2,54.7,synthetic_track,running_shoes,0,12.29,Good,1704091110000,-1.72,0.29,9.0,-0.266,-0.029,-1.136,2.71,3.13,2.87,3.58,2.72,3.25,168.0,4.5,634.0,0.37,1.75,0.94,190.0,0.21,7.8,9.4,6.7,85.0,103.0,24.0,forefoot,211.0,74.0,123.0,95.0
SH0379,P379,34,F,171.8,60.5,grass,spikes,1,15.46,Below Average,1704091140000,2.23,0.74,9.96,-0.726,0.05,-0.079,3.52,4.09,3.9,3.95,3.03,2.59,172.0,4.2,448.0,0.24,1.64,0.85,195.0,0.21,9.7,7.6,7.6,69.0,102.0,22.0,midfoot,191.0,69.0,144.0,128.0
SH0380,P380,18,F,150.0,55.6,gym_floor,basketball_shoes,0,14.56,Below Average,1704091170000,0.89,0.25,9.61,0.575,-0.398,-0.367,3.37,3.79,3.4,4.0,2.79,2.75,153.0,3.1,579.0,0.28,1.68,1.13,218.0,0.38,7.6,7.7,6.9,90.0,89.0,9.0,heel,258.0,71.0,142.0,121.0
SH0381,P381,27,F,165.5,57.8,synthetic_track,turf_shoes,0,12.23,Good,1704091200000,-1.83,-0.89,10.03,-0.327,-0.479,1.066,3.36,3.24,3.04,2.58,2.84,3.27,148.0,3.8,413.0,0.22,1.24,1.36,224.0,0.06,6.7,6.8,7.9,65.0,103.0,20.0,forefoot,227.0,71.0,147.0,125.0
SH0382,P382,32,M,178.6,69.6,grass,spikes,0,12.37,Good,1704091230000,1.23,-1.17,9.35,-0.772,-0.466,-0.041,3.09,2.87,3.29,3.13,2.97,3.23,200.0,3.3,589.0,0.16,1.31,1.2,217.0,0.26,8.6,9.4,9.0,84.0,111.0,16.0,midfoot,267.0,73.0,137.0,108.0
SH0383,P383,27,F,164.1,80.1,rubberized_floor,basketball_shoes,0,15.64,Below Average,1704091260000,-1.29,-1.5,9.62,0.145,0.472,-0.332,4.01,4.03,3.89,3.71,2.45,2.56,173.0,3.7,462.0,0.24,1.92,1.32,193.0,0.39,6.7,6.1,6.4,80.0,102.0,23.0,forefoot,195.0,79.0,153.0,121.0
SH0384,P384,34,M,190.2,87.7,gym_floor,running_shoes,0,12.87,Average,1704091290000,-1.6,0.22,10.47,-0.334,0.294,-0.023,3.56,3.11,3.08,3.12,2.54,3.11,148.0,4.4,506.0,0.46,1.79,1.1,187.0,0.39,7.9,6.4,8.2,88.0,105.0,11.0,midfoot,137.0,64.0,112.0,86.0
SH0385,P385,25,F,157.3,68.4,gym_floor,cross_trainers,0,14.38,Below Average,1704091320000,1.24,-0.84,8.94,0.716,0.454,1.177,3.99,3.76,3.72,2.91,3.12,2.78,135.0,4.4,432.0,0.51,1.33,1.32,248.0,0.08,7.1,6.3,8.6,71.0,140.0,20.0,midfoot,164.0,62.0,113.0,93.0
SH0386,P386,27,M,168.2,61.7,synthetic_track,running_shoes,0,11.26,Very Good,1704091350000,0.37,-0.52,10.14,-0.506,-0.035,-1.167,2.54,2.86,2.93,2.94,3.53,3.55,151.0,3.9,589.0,0.51,1.81,1.28,235.0,0.33,9.5,9.8,7.6,84.0,140.0,8.0,forefoot,184.0,65.0,114.0,85.0
SH0387,P387,25,F,163.4,54.5,rubberized_floor,turf_shoes,0,12.11,Good,1704091380000,-1.24,0.39,10.02,0.602,0.352,1.116,3.37,3.01,3.17,2.56,3.41,3.3,132.0,3.6,628.0,0.24,1.43,0.87,176.0,0.26,9.2,6.0,7.3,69.0,96.0,16.0,midfoot,136.0,64.0,113.0,79.0
SH0388,P388,31,M,181.7,88.6,grass,spikes,0,13.35,Average,1704091410000,-1.29,-0.03,8.65,-0.744,-0.031,-0.243,3.71,3.52,3.32,2.81,2.56,3.0,184.0,3.2,638.0,0.36,1.42,0.9,218.0,0.24,7.7,6.5,8.8,65.0,88.0,18.0,heel,129.0,66.0,140.0,124.0
SH0389,P389,27,F,162.5,68.6,rubberized_floor,basketball_shoes,0,14.28,Below Average,1704091440000,-1.01,-0.58,10.27,0.358,0.17,0.717,3.69,3.79,3.51,3.28,2.53,2.8,129.0,3.8,571.0,0.27,1.74,1.37,166.0,0.14,7.9,7.9,8.6,92.0,120.0,8.0,forefoot,305.0,75.0,149.0,128.0
SH0390,P390,31,F,156.4,58.9,rubberized_floor,basketball_shoes,0,14.92,Below Average,1704091470000,0.98,0.29,8.75,0.741,-0.377,-0.588,4.11,3.45,3.94,3.42,3.02,2.68,138.0,4.3,594.0,0.17,1.66,1.33,260.0,0.37,7.9,9.0,9.2,76.0,90.0,9.0,forefoot,143.0,71.0,119.0,103.0
SH0391,P391,15,F,150.0,69.3,grass,running_shoes,0,16.0,Below Average,1704091500000,-1.58,0.54,10.03,-0.113,0.362,-0.838,3.59,3.95,4.02,4.43,2.28,2.5,174.0,4.5,483.0,0.48,1.98,1.27,210.0,0.28,9.9,8.8,6.3,72.0,96.0,18.0,heel,110.0,75.0,144.0,110.0
SH0392,P392,33,F,163.5,45.0,synthetic_track,spikes,0,12.83,Average,1704091530000,0.23,0.8,10.29,0.464,-0.305,0.239,3.02,3.1,3.44,3.27,2.91,3.12,146.0,3.0,446.0,0.24,1.3,0.86,204.0,0.35,6.3,8.4,6.8,75.0,135.0,16.0,forefoot,325.0,61.0,105.0,77.0
SH0393,P393,33,M,186.8,69.2,synthetic_track,spikes,0,11.07,Very Good,1704091560000,0.48,0.0,10.46,0.53,0.412,-0.59,3.08,2.61,2.91,2.47,4.01,3.61,157.0,3.5,480.0,0.21,1.67,1.01,165.0,0.2,8.6,6.1,6.3,89.0,133.0,12.0,forefoot,331.0,66.0,122.0,97.0
SH0394,P394,31,F,167.2,61.8,gym_floor,cross_trainers,0,13.27,Average,1704091590000,-2.13,-0.93,9.18,-0.675,-0.308,0.987,3.1,3.5,3.31,3.36,2.43,3.01,170.0,3.6,587.0,0.59,1.82,1.38,282.0,0.39,8.1,7.9,9.0,71.0,128.0,12.0,forefoot,154.0,67.0,144.0,126.0
SH0395,P395,18,M,184.8,90.9,synthetic_track,turf_shoes,0,11.67,Good,1704091620000,0.31,-0.94,10.1,0.755,-0.285,-0.751,3.24,2.87,2.88,2.69,3.36,3.43,198.0,4.0,499.0,0.46,1.65,1.38,260.0,0.15,8.8,9.6,8.8,71.0,127.0,13.0,forefoot,175.0,76.0,121.0,89.0
SH0396,P396,19,F,156.6,45.7,gym_floor,turf_shoes,0,12.67,Average,1704091650000,0.21,-0.65,9.15,-0.238,-0.437,1.166,3.3,3.28,3.26,2.82,2.56,3.16,131.0,4.0,554.0,0.24,1.22,1.05,196.0,0.16,7.7,7.9,8.8,62.0,121.0,18.0,forefoot,312.0,71.0,130.0,104.0
SH0397,P397,34,F,171.9,70.1,synthetic_track,cross_trainers,0,13.83,Below Average,1704091680000,-1.72,0.42,10.25,-0.145,-0.33,0.616,3.13,3.23,3.58,3.89,3.28,2.89,129.0,3.7,595.0,0.34,1.45,1.32,155.0,0.29,6.7,7.4,9.1,89.0,136.0,23.0,forefoot,276.0,62.0,112.0,95.0
SH0398,P398,32,F,159.0,65.6,concrete,spikes,0,14.28,Below Average,1704091710000,-0.76,0.19,9.37,-0.066,0.47,-0.489,3.23,3.32,3.37,4.36,2.94,2.8,167.0,4.1,523.0,0.38,1.57,1.33,246.0,0.21,9.1,9.2,9.3,90.0,136.0,8.0,forefoot,388.0,66.0,140.0,118.0
SH0399,P399,20,F,158.7,51.5,rubberized_floor,basketball_shoes,0,13.94,Below Average,1704091740000,2.43,-0.18,9.54,0.035,0.039,0.043,3.24,3.71,3.72,3.27,2.31,2.87,179.0,4.4,413.0,0.24,1.61,0.91,215.0,0.32,9.2,9.6,9.4,63.0,82.0,21.0,forefoot,399.0,62.0,136.0,112.0
